time,ax,ay,az,atotal
0.000,0.75,0.30,0.65,1.04
0.010,0.19,0.24,-0.15,0.35
0.020,0.21,-0.07,-0.70,0.73
0.030,0.10,-0.24,-0.52,0.58
0.040,0.28,-0.19,-0.23,0.41
0.050,0.48,-0.07,-0.25,0.54
0.060,0.47,0.15,-0.11,0.50
0.070,0.26,0.32,0.14,0.43
0.080,0.34,0.25,0.18,0.46
0.090,0.39,0.09,0.02,0.40
0.100,0.35,-0.09,-0.15,0.39
0.110,0.26,-0.24,-0.25,0.43
0.120,0.22,-0.37,-0.33,0.54
0.130,0.25,-0.50,-0.41,0.69
0.140,0.25,-0.65,-0.42,0.81
0.150,0.29,-0.61,-0.28,0.73
0.160,0.25,-0.32,-0.20,0.45
0.170,0.36,0.01,-0.27,0.45
0.180,0.47,0.23,0.21,0.56
0.190,0.40,0.18,0.27,0.52
0.200,0.29,-0.03,-0.32,0.44
0.210,0.38,-0.17,-0.28,0.50
0.220,0.54,-0.22,0.12,0.59
0.230,0.42,-0.35,-0.11,0.56
0.239,0.50,-0.47,-0.23,0.73
0.250,0.89,-0.37,-0.07,0.97
0.259,1.07,-0.25,-0.40,1.17
0.269,0.89,-0.15,-0.84,1.23
0.279,0.82,-0.03,-1.09,1.37
0.289,0.77,-0.03,-1.30,1.51
0.299,0.97,0.46,-0.98,1.46
0.309,1.13,0.15,-1.31,1.74
0.319,1.26,-0.75,-1.80,2.33
0.329,1.33,-1.00,-1.69,2.37
0.339,1.37,-0.87,-1.40,2.14
0.349,1.53,-0.78,-1.23,2.11
0.359,1.75,-0.47,-1.19,2.16
0.369,1.56,-0.76,-1.37,2.21
0.379,1.50,-2.22,-1.63,3.14
0.389,1.42,-2.58,-1.67,3.39
0.399,1.62,-2.11,-1.01,2.85
0.409,2.02,-1.30,-0.75,2.52
0.419,2.16,-0.73,-0.60,2.35
0.429,2.06,-0.56,-0.69,2.24
0.439,1.91,-0.86,-1.35,2.49
0.449,1.84,-1.33,-1.81,2.90
0.459,1.84,-1.54,-1.23,2.69
0.469,1.52,-1.49,-0.17,2.13
0.479,1.00,-1.34,-0.06,1.67
0.489,1.06,-1.35,-0.35,1.76
0.499,1.17,-1.65,-0.71,2.14
0.509,1.04,-1.94,-0.60,2.28
0.519,1.12,-2.02,-0.25,2.32
0.529,0.83,-1.89,-0.03,2.07
0.539,0.23,-1.73,0.63,1.86
0.549,-0.31,-1.65,1.67,2.37
0.559,-0.23,-1.35,1.18,1.81
0.569,0.05,-0.95,-0.19,0.97
0.579,-0.13,-0.74,-1.07,1.31
0.589,-0.50,-0.77,-1.09,1.42
0.599,-0.75,-0.88,-1.01,1.54
0.609,-0.76,-1.08,-1.84,2.26
0.619,-1.35,-0.62,-1.28,1.96
0.629,-0.83,-0.20,-1.28,1.54
0.639,0.47,-1.10,-1.85,2.20
0.649,1.03,-1.91,-2.15,3.05
0.659,1.56,-1.91,-2.41,3.45
0.669,2.12,-1.55,-2.79,3.83
0.679,3.10,-2.02,-3.39,5.02
0.689,4.20,-2.62,-4.82,6.91
0.698,6.05,-2.10,-6.97,9.46
0.708,7.72,-1.64,-8.22,11.40
0.718,6.92,-2.18,-7.02,10.09
0.728,3.44,-3.30,-2.90,5.58
0.738,1.68,-4.82,1.26,5.26
0.749,0.96,-4.62,3.14,5.67
0.758,0.12,-2.80,2.70,3.89
0.768,0.45,-1.59,1.06,1.96
0.778,1.85,-1.58,-1.03,2.64
0.788,3.53,-2.24,-1.79,4.54
0.798,4.36,-2.93,-2.18,5.69
0.808,3.61,-3.29,-2.63,5.54
0.818,0.70,-3.82,-2.43,4.58
0.828,-3.02,-5.23,-1.49,6.22
0.838,-6.10,-6.19,-0.71,8.72
0.848,-7.97,-5.96,-0.54,9.97
0.858,-8.26,-5.28,-0.11,9.80
0.868,-7.52,-4.39,-0.05,8.71
0.878,-7.05,-3.47,0.29,7.86
0.888,-6.22,-2.60,1.40,6.88
0.898,-5.66,-1.97,2.67,6.56
0.908,-6.16,-1.35,3.53,7.23
0.918,-7.00,-0.57,4.51,8.34
0.928,-8.21,-0.12,4.97,9.59
0.938,-8.39,0.14,4.66,9.60
0.948,-8.30,0.02,3.22,8.90
0.958,-8.18,0.12,1.78,8.37
0.968,-8.01,0.20,1.37,8.13
0.978,-7.44,0.50,1.36,7.58
0.988,-6.40,1.07,2.37,6.91
0.998,-5.74,1.81,3.53,6.98
1.008,-5.77,2.67,4.19,7.61
1.018,-5.95,3.27,4.52,8.16
1.028,-5.98,3.02,3.62,7.62
1.038,-5.62,2.33,0.72,6.13
1.048,-5.64,1.81,1.54,6.12
1.058,-5.62,2.11,4.46,7.48
1.068,-4.73,3.24,8.88,10.56
1.078,-2.69,4.11,13.59,14.46
1.088,-0.57,4.32,12.51,13.24
1.098,-1.38,3.83,5.49,6.84
1.108,-1.97,1.37,4.76,5.33
1.118,-0.26,0.05,4.43,4.44
1.128,1.10,-0.31,3.08,3.28
1.138,0.85,-0.35,2.33,2.50
1.147,-0.37,0.38,2.64,2.70
1.157,-1.75,2.58,0.74,3.21
1.168,-0.08,0.81,-0.11,0.82
1.177,-0.38,0.63,0.47,0.88
1.187,-0.21,0.72,-0.55,0.93
1.197,0.47,-0.41,-1.43,1.56
1.207,-0.29,0.52,-1.05,1.21
1.217,-0.87,0.69,-0.93,1.45
1.227,-0.30,-0.07,-1.45,1.49
1.237,-1.85,0.82,0.17,2.03
1.247,-1.76,0.84,0.71,2.07
1.257,-1.02,0.12,0.21,1.05
1.267,-0.51,-0.22,0.04,0.55
1.277,-0.23,-0.20,-0.04,0.30
1.287,-0.21,0.51,0.12,0.56
1.297,-0.27,0.55,0.17,0.63
1.307,-1.91,1.80,1.84,3.21
1.317,-3.66,3.42,0.08,5.01
1.327,-3.87,2.46,-1.22,4.75
1.337,-2.94,0.94,-1.93,3.63
1.347,0.18,0.31,-3.42,3.44
1.357,-0.58,1.60,-3.44,3.84
1.367,-1.20,1.30,-3.23,3.68
1.377,1.65,-0.04,-3.87,4.21
1.387,4.05,0.46,-3.74,5.53
1.397,2.52,0.17,-1.78,3.08
1.407,0.36,-1.05,-1.09,1.56
1.417,1.15,-0.78,-1.43,1.99
1.427,3.86,0.20,-2.23,4.46
1.437,4.65,-0.69,-2.24,5.21
1.447,4.51,-2.36,-3.37,6.11
1.457,4.21,-3.55,-4.15,6.89
1.467,3.75,-4.48,-2.33,6.29
1.477,2.91,-4.50,1.64,5.60
1.487,2.05,-3.22,5.26,6.50
1.497,2.03,-2.67,6.64,7.44
1.507,1.79,-1.52,5.55,6.02
1.517,2.72,-0.96,3.95,4.89
1.527,3.82,-0.96,3.02,4.97
1.537,4.77,-0.50,2.44,5.38
1.547,5.69,0.11,2.39,6.17
1.557,6.06,0.95,2.68,6.69
1.567,6.43,1.07,2.69,7.05
1.576,6.12,0.87,1.69,6.41
1.587,4.82,0.54,-0.53,4.88
1.596,2.65,-0.73,-1.91,3.34
1.607,0.38,-1.92,-2.33,3.04
1.617,-1.97,-3.29,-3.18,4.99
1.626,-3.91,-4.19,-4.05,7.02
1.636,-5.07,-4.31,-4.22,7.88
1.647,-5.75,-3.85,-3.51,7.76
1.656,-6.60,-2.78,-2.99,7.75
1.666,-7.11,-2.24,-2.58,7.89
1.676,-6.78,-2.06,-2.03,7.37
1.686,-5.58,-1.59,-1.28,5.94
1.696,-3.82,-0.72,-0.72,3.96
1.706,-2.19,0.56,-0.50,2.32
1.716,-1.08,1.32,-0.47,1.77
1.726,-0.48,1.53,0.27,1.63
1.736,-0.06,1.60,1.75,2.38
1.746,0.42,1.60,3.84,4.18
1.756,0.69,1.64,4.73,5.05
1.766,0.72,1.67,3.98,4.38
1.776,0.72,1.98,2.56,3.32
1.786,0.59,2.55,1.09,2.84
1.796,0.82,3.26,-0.07,3.37
1.806,1.14,3.71,-0.81,3.97
1.816,1.49,4.13,-1.06,4.51
1.826,1.89,4.49,-0.96,4.97
1.836,2.44,4.75,-0.77,5.40
1.846,2.67,4.59,-0.57,5.34
1.856,2.26,3.98,-0.41,4.59
1.866,3.21,5.03,-0.22,5.97
1.876,4.02,5.75,-0.08,7.02
1.886,3.92,6.38,0.40,7.50
1.896,3.31,7.00,0.80,7.79
1.906,2.32,7.17,0.80,7.57
1.916,0.69,2.74,-0.07,2.82
1.926,-0.99,-5.02,0.92,5.20
1.936,-0.52,-14.31,0.52,14.33
1.946,0.18,-21.64,-1.87,21.72
1.956,-2.79,-24.37,-3.30,24.75
1.966,-3.82,-21.44,-3.81,22.10
1.976,-2.81,-15.12,-3.30,15.73
1.986,-1.44,-7.73,-2.01,8.12
1.996,0.11,-2.25,-1.41,2.66
2.006,1.29,1.40,-0.88,2.10
2.015,2.07,3.71,-0.25,4.25
2.026,2.55,5.12,0.28,5.73
2.036,2.85,5.92,0.75,6.62
2.046,3.07,6.05,1.24,6.90
2.055,3.17,5.46,1.64,6.52
2.065,2.80,4.10,2.02,5.36
2.075,1.99,2.20,2.36,3.79
2.086,1.10,0.37,2.16,2.45
2.095,0.43,-0.98,1.26,1.65
2.105,0.08,-1.82,0.15,1.83
2.115,-0.15,-2.34,-0.77,2.47
2.125,-0.10,-2.54,-1.21,2.81
2.135,0.18,-2.38,-1.13,2.65
2.145,0.47,-1.94,-0.45,2.04
2.155,0.67,-1.18,0.80,1.57
2.165,0.68,-0.44,1.59,1.78
2.175,0.44,0.15,1.54,1.60
2.185,0.11,0.49,1.00,1.11
2.195,-0.15,0.64,0.33,0.74
2.205,-0.24,0.32,-0.18,0.44
2.215,-0.18,0.06,-0.41,0.45
2.225,-0.07,-0.07,-0.52,0.53
2.235,-0.02,-0.16,-0.53,0.56
2.245,-0.06,-0.13,-0.45,0.47
2.255,-0.19,-0.05,-0.34,0.39
2.265,-0.29,0.04,-0.28,0.40
2.275,-0.39,0.13,-0.26,0.49
2.285,-0.37,0.19,-0.29,0.51
2.295,-0.28,0.21,-0.36,0.50
2.305,-0.26,0.22,-0.41,0.54
2.315,-0.22,0.17,-0.45,0.53
2.325,-0.07,0.08,-0.45,0.46
2.335,0.11,-0.03,-0.46,0.47
2.345,0.19,-0.09,-0.41,0.46
2.355,0.23,-0.13,-0.36,0.45
2.365,0.32,-0.16,-0.30,0.46
2.375,0.39,-0.15,-0.21,0.47
2.385,0.47,-0.15,-0.09,0.50
2.395,0.52,-0.13,0.05,0.54
2.405,0.57,-0.13,0.17,0.61
2.415,0.57,-0.12,0.26,0.64
2.425,0.53,-0.11,0.29,0.62
2.435,0.45,-0.10,0.29,0.54
2.445,0.34,-0.10,0.30,0.46
2.455,0.25,-0.08,0.30,0.40
2.465,0.19,-0.07,0.26,0.33
2.475,0.15,-0.04,0.20,0.25
2.485,0.12,-0.01,0.14,0.19
2.494,0.09,0.01,0.04,0.09
2.505,0.04,0.03,-0.06,0.08
2.515,-0.04,0.07,-0.15,0.17
2.525,-0.05,0.07,-0.24,0.25
2.534,0.01,0.08,-0.30,0.31
2.545,-0.05,0.17,-0.31,0.36
2.554,-0.04,0.08,-0.35,0.36
2.564,0.08,-0.00,-0.37,0.38
2.574,0.11,0.10,-0.32,0.35
2.584,0.11,0.12,-0.25,0.30
2.594,0.11,0.10,-0.13,0.19
2.604,0.04,0.16,-0.06,0.18
2.614,-0.23,0.08,-0.11,0.27
2.624,-0.83,0.20,0.00,0.86
2.634,-1.07,-0.09,0.01,1.08
2.644,-0.37,-0.35,-0.31,0.59
2.654,0.84,-0.06,-0.33,0.91
2.664,1.56,0.08,-0.21,1.58
2.674,1.46,-0.02,0.03,1.46
2.684,0.84,-0.18,0.49,0.99
2.694,0.35,-0.26,0.84,0.95
2.704,0.05,-0.20,0.86,0.89
2.714,-0.05,-0.08,0.63,0.63
2.724,0.04,-0.07,0.32,0.32
2.734,0.09,-0.04,0.09,0.13
2.744,0.06,0.03,-0.04,0.08
2.754,0.04,0.05,-0.12,0.13
2.764,0.00,0.04,-0.18,0.18
2.774,-0.02,0.04,-0.21,0.21
2.784,-0.03,0.02,-0.23,0.24
2.794,0.01,-0.00,-0.27,0.27
2.804,0.04,0.02,-0.26,0.26
2.814,0.02,0.07,-0.25,0.26
2.824,0.00,0.12,-0.24,0.27
2.834,-0.00,0.14,-0.19,0.23
2.844,0.06,0.13,-0.12,0.18
2.854,0.15,0.11,-0.03,0.19
2.864,0.21,0.08,0.06,0.24
2.874,0.25,0.04,0.11,0.28
2.884,0.23,-0.01,0.14,0.27
2.894,0.20,-0.07,0.16,0.27
2.904,0.12,-0.10,0.18,0.24
2.913,0.04,-0.10,0.16,0.20
2.924,-0.02,-0.09,0.17,0.19
2.934,-0.05,-0.08,0.14,0.17
2.944,-0.05,-0.06,0.10,0.13
2.953,0.00,-0.05,0.03,0.06
2.963,0.10,-0.06,-0.04,0.12
2.973,0.20,-0.07,-0.11,0.25
2.983,0.31,-0.08,-0.19,0.37
2.993,0.38,-0.10,-0.23,0.45
3.003,0.42,-0.08,-0.24,0.49
3.013,0.40,-0.07,-0.23,0.47
3.023,0.35,-0.06,-0.18,0.40
3.033,0.29,-0.05,-0.10,0.31
3.043,0.21,-0.02,-0.06,0.22
3.053,0.13,0.01,-0.01,0.13
3.063,0.06,0.01,0.04,0.07
3.073,0.00,0.01,0.07,0.07
3.083,-0.02,0.01,0.08,0.08
3.093,-0.04,0.05,0.07,0.09
3.103,-0.08,0.06,0.05,0.11
3.113,-0.09,0.06,0.03,0.11
3.123,-0.11,0.06,0.01,0.12
3.133,-0.11,0.03,-0.01,0.11
3.143,-0.09,0.00,-0.03,0.09
3.153,-0.06,-0.01,-0.03,0.07
3.163,-0.01,-0.02,-0.02,0.03
3.173,0.04,-0.02,-0.01,0.04
3.183,0.07,-0.01,-0.00,0.07
3.193,0.12,-0.02,-0.02,0.12
3.203,0.18,-0.02,-0.02,0.18
3.213,0.20,-0.05,-0.01,0.21
3.223,0.25,-0.07,-0.01,0.26
3.233,0.28,-0.08,0.01,0.29
3.243,0.26,-0.05,0.03,0.27
3.253,0.26,-0.01,0.02,0.26
3.263,0.24,0.02,-0.02,0.24
3.273,0.21,0.05,-0.05,0.23
3.283,0.18,0.06,-0.09,0.21
3.293,0.16,0.07,-0.11,0.21
3.303,0.11,0.06,-0.13,0.18
3.313,0.06,0.07,-0.15,0.17
3.323,0.04,0.08,-0.14,0.16
3.333,-0.00,0.09,-0.13,0.16
3.343,-0.05,0.09,-0.12,0.16
3.353,-0.05,0.05,-0.10,0.12
3.363,-0.02,0.01,-0.09,0.09
3.373,0.00,-0.03,-0.07,0.08
3.383,0.05,-0.02,-0.05,0.07
3.392,0.09,0.02,-0.02,0.10
3.403,0.13,0.04,0.04,0.14
3.412,0.18,0.03,0.08,0.20
3.422,0.22,-0.01,0.14,0.26
3.432,0.22,-0.08,0.17,0.29
3.443,0.24,-0.13,0.18,0.33
3.452,0.26,-0.13,0.18,0.34
3.462,0.29,-0.11,0.17,0.35
3.472,0.29,-0.07,0.14,0.33
3.482,0.27,-0.09,0.13,0.31
3.492,0.23,-0.08,0.13,0.28
3.502,0.16,-0.05,0.14,0.21
3.512,0.12,-0.01,0.13,0.18
3.522,0.10,0.04,0.09,0.14
3.532,0.08,0.06,0.04,0.11
3.542,0.07,0.03,0.00,0.07
3.552,0.11,-0.01,-0.06,0.13
3.562,0.15,-0.04,-0.09,0.18
3.572,0.22,-0.07,-0.12,0.26
3.582,0.26,-0.07,-0.13,0.30
3.592,0.27,-0.04,-0.13,0.30
3.602,0.26,-0.03,-0.11,0.29
3.612,0.23,0.00,-0.08,0.25
3.622,0.21,0.02,-0.05,0.22
3.632,0.17,-0.00,-0.02,0.17
3.642,0.15,-0.04,0.01,0.15
3.652,0.16,-0.05,0.02,0.17
3.662,0.18,-0.05,0.01,0.19
3.672,0.21,-0.02,0.01,0.21
3.682,0.23,-0.00,-0.04,0.23
3.692,0.27,0.00,-0.09,0.28
3.702,0.31,0.01,-0.14,0.34
3.712,0.29,0.01,-0.17,0.34
3.722,0.26,0.00,-0.19,0.32
3.732,0.19,-0.00,-0.18,0.26
3.742,0.11,0.05,-0.16,0.20
3.752,0.02,0.12,-0.12,0.17
3.762,-0.06,0.12,-0.08,0.16
3.772,-0.15,0.10,-0.05,0.18
3.782,-0.18,0.11,-0.03,0.21
3.792,-0.18,0.13,0.02,0.22
3.802,-0.13,0.15,0.05,0.20
3.812,-0.08,0.15,0.07,0.19
3.822,-0.01,0.14,0.10,0.17
3.831,0.09,0.14,0.12,0.21
3.842,0.15,0.12,0.11,0.22
3.852,0.20,0.05,0.09,0.23
3.862,0.23,0.00,0.09,0.25
3.872,0.22,-0.04,0.08,0.23
3.881,0.18,-0.04,0.10,0.21
3.891,0.13,-0.02,0.12,0.18
3.901,0.07,-0.00,0.14,0.16
3.911,-0.01,-0.01,0.16,0.16
3.921,-0.07,-0.04,0.19,0.21
3.931,-0.13,-0.10,0.19,0.25
3.941,-0.16,-0.12,0.19,0.28
3.951,-0.17,-0.11,0.17,0.26
3.961,-0.19,-0.10,0.16,0.26
3.971,-0.13,-0.06,0.14,0.20
3.981,-0.05,-0.05,0.11,0.14
3.991,0.04,-0.06,0.08,0.11
4.001,0.12,-0.11,0.05,0.17
4.011,0.21,-0.17,0.01,0.27
4.021,0.28,-0.16,0.01,0.33
4.031,0.30,-0.15,0.04,0.34
4.041,0.31,-0.12,0.08,0.34
4.051,0.28,-0.07,0.11,0.31
4.061,0.24,-0.01,0.14,0.28
4.071,0.20,0.04,0.16,0.26
4.081,0.17,0.07,0.14,0.23
4.091,0.12,0.07,0.11,0.18
4.101,0.11,0.06,0.03,0.13
4.111,0.09,0.04,-0.05,0.11
4.121,0.07,0.01,-0.15,0.17
4.131,0.08,-0.00,-0.22,0.23
4.141,0.11,-0.01,-0.29,0.31
4.151,0.14,-0.01,-0.34,0.36
4.161,0.17,-0.02,-0.35,0.39
4.171,0.18,-0.02,-0.36,0.41
4.181,0.19,-0.04,-0.34,0.39
4.191,0.21,-0.07,-0.30,0.37
4.201,0.21,-0.04,-0.25,0.33
4.211,0.21,0.00,-0.18,0.28
4.221,0.22,0.04,-0.10,0.24
4.231,0.19,0.04,-0.01,0.20
4.241,0.17,-0.01,0.06,0.18
4.251,0.16,-0.07,0.07,0.19
4.261,0.17,-0.09,0.09,0.21
4.271,0.16,-0.09,0.07,0.19
4.280,0.15,-0.09,0.02,0.18
4.290,0.15,-0.09,-0.03,0.18
4.301,0.15,-0.07,-0.07,0.18
4.310,0.15,-0.03,-0.09,0.18
4.321,0.16,0.04,-0.11,0.20
4.330,0.19,0.08,-0.13,0.24
4.340,0.16,0.10,-0.12,0.23
4.350,0.11,0.06,-0.10,0.16
4.360,0.05,-0.03,-0.06,0.08
4.370,0.02,-0.11,-0.02,0.11
4.380,-0.01,-0.15,0.01,0.15
4.390,-0.00,-0.11,0.05,0.12
4.400,-0.00,-0.08,0.08,0.11
4.410,0.03,-0.04,0.08,0.10
4.420,0.07,-0.03,0.08,0.11
4.430,0.09,-0.04,0.06,0.11
4.440,0.10,-0.03,0.05,0.11
4.450,0.12,-0.00,0.02,0.13
4.460,0.13,0.00,0.01,0.13
4.470,0.11,-0.00,0.01,0.11
4.480,0.10,0.01,0.02,0.10
4.490,0.09,0.03,0.02,0.10
4.500,0.11,0.04,-0.01,0.12
4.510,0.13,0.07,-0.04,0.16
4.520,0.15,0.09,-0.07,0.19
4.530,0.17,0.08,-0.10,0.22
4.540,0.18,0.05,-0.13,0.23
4.550,0.18,0.02,-0.14,0.23
4.560,0.17,0.00,-0.14,0.22
4.570,0.15,0.01,-0.13,0.20
4.580,0.14,0.03,-0.11,0.18
4.590,0.12,0.06,-0.08,0.15
4.600,0.09,0.06,-0.06,0.12
4.610,0.09,0.05,-0.05,0.11
4.620,0.07,0.02,-0.02,0.08
4.630,0.06,0.00,0.01,0.06
4.640,0.05,-0.02,0.01,0.06
4.650,0.05,-0.03,0.03,0.06
4.660,0.05,-0.08,0.03,0.11
4.670,0.07,-0.10,0.04,0.13
4.680,0.08,-0.09,0.05,0.13
4.690,0.12,-0.05,0.04,0.14
4.700,0.16,-0.01,0.03,0.16
4.710,0.19,0.00,0.03,0.19
4.720,0.20,-0.00,0.02,0.20
4.729,0.21,-0.02,0.01,0.21
4.740,0.19,-0.03,-0.00,0.19
4.750,0.17,-0.03,-0.03,0.18
4.759,0.14,-0.03,-0.05,0.15
4.769,0.11,-0.07,-0.07,0.14
4.780,0.09,-0.11,-0.10,0.17
4.789,0.06,-0.07,-0.10,0.14
4.799,0.07,0.02,-0.09,0.12
4.809,0.09,0.08,-0.08,0.15
4.819,0.08,0.09,-0.07,0.14
4.829,0.08,0.05,-0.04,0.10
4.839,0.08,-0.02,-0.02,0.08
4.849,0.06,-0.06,0.00,0.08
4.859,0.08,-0.07,0.02,0.11
4.869,0.09,-0.08,0.02,0.12
4.879,0.10,-0.07,0.03,0.13
4.889,0.11,-0.02,0.01,0.11
4.899,0.14,-0.01,-0.01,0.14
4.909,0.18,0.02,-0.03,0.18
4.919,0.21,0.05,-0.06,0.22
4.929,0.22,0.04,-0.08,0.24
4.939,0.22,0.03,-0.09,0.24
4.949,0.22,0.03,-0.09,0.24
4.959,0.21,0.01,-0.10,0.24
4.969,0.19,-0.01,-0.09,0.21
4.979,0.17,0.00,-0.10,0.20
4.989,0.15,0.00,-0.08,0.17
4.999,0.11,-0.01,-0.08,0.14
5.009,0.09,0.01,-0.08,0.12
5.019,0.07,0.02,-0.06,0.10
5.029,0.07,0.02,-0.05,0.09
5.039,0.06,0.02,-0.04,0.07
5.049,0.07,0.01,-0.03,0.07
5.059,0.06,-0.01,-0.04,0.07
5.069,0.08,-0.03,-0.06,0.11
5.079,0.09,-0.06,-0.06,0.12
5.089,0.11,-0.04,-0.07,0.14
5.099,0.13,0.00,-0.06,0.14
5.109,0.15,-0.00,-0.06,0.16
5.119,0.16,-0.00,-0.05,0.16
5.129,0.18,-0.02,-0.04,0.18
5.139,0.18,-0.02,-0.03,0.19
5.149,0.19,-0.01,-0.02,0.19
5.159,0.20,-0.01,-0.01,0.20
5.169,0.22,-0.01,0.01,0.22
5.179,0.23,-0.03,0.00,0.23
5.189,0.24,-0.02,0.02,0.24
5.198,0.24,-0.03,0.02,0.24
5.208,0.20,-0.03,0.02,0.20
5.218,0.19,-0.04,0.03,0.20
5.228,0.17,-0.04,0.03,0.18
5.239,0.15,-0.03,0.03,0.15
5.248,0.12,-0.01,0.03,0.12
5.258,0.10,-0.02,0.01,0.10
5.268,0.07,-0.02,-0.01,0.08
5.278,0.07,-0.03,-0.03,0.08
5.288,0.07,-0.00,-0.05,0.09
5.298,0.10,0.02,-0.03,0.11
5.308,0.11,0.03,-0.05,0.12
5.318,0.13,0.01,-0.05,0.14
5.328,0.15,-0.01,-0.04,0.16
5.338,0.17,-0.03,-0.05,0.18
5.348,0.18,-0.02,-0.04,0.19
5.358,0.19,-0.01,-0.03,0.19
5.368,0.19,-0.02,-0.02,0.19
5.378,0.19,-0.01,-0.02,0.19
5.388,0.19,-0.01,-0.01,0.19
5.398,0.16,-0.01,0.00,0.16
5.408,0.14,-0.03,0.01,0.15
5.418,0.13,-0.03,0.00,0.13
5.428,0.11,-0.03,0.01,0.11
5.438,0.13,-0.02,-0.00,0.13
5.448,0.14,-0.01,-0.01,0.14
5.458,0.14,-0.00,-0.01,0.14
5.468,0.15,-0.02,-0.01,0.15
5.478,0.14,-0.04,-0.01,0.15
5.488,0.14,-0.05,-0.00,0.15
5.498,0.14,-0.07,0.01,0.16
5.508,0.13,-0.07,0.03,0.15
5.518,0.15,-0.04,0.00,0.15
5.528,0.13,-0.04,0.01,0.14
5.538,0.12,-0.05,0.00,0.13
5.548,0.11,-0.07,-0.01,0.14
5.558,0.13,-0.10,-0.01,0.16
5.568,0.12,-0.10,-0.03,0.16
5.578,0.13,-0.09,-0.02,0.16
5.588,0.16,-0.10,-0.04,0.19
5.598,0.17,-0.08,-0.05,0.19
5.608,0.19,-0.07,-0.07,0.21
5.618,0.22,-0.04,-0.03,0.23
5.628,0.25,-0.00,-0.02,0.25
5.638,0.27,0.01,-0.01,0.27
5.647,0.29,0.02,-0.03,0.29
5.657,0.27,0.01,-0.02,0.27
5.667,0.23,0.03,-0.02,0.24
5.677,0.20,0.05,-0.03,0.21
5.687,0.12,0.08,-0.01,0.15
5.697,0.05,0.08,-0.00,0.09
5.707,-0.03,0.09,0.02,0.09
5.717,-0.10,0.09,0.03,0.14
5.727,-0.17,0.08,0.03,0.19
5.737,-0.13,0.07,0.03,0.15
5.747,-0.11,0.06,0.04,0.13
5.757,-0.14,0.01,0.01,0.14
5.767,-0.10,-0.01,-0.02,0.11
5.777,-0.00,0.01,-0.02,0.03
5.787,0.09,-0.00,-0.03,0.09
5.797,0.17,0.01,-0.02,0.17
5.807,0.20,-0.01,-0.01,0.20
5.817,0.21,-0.00,-0.00,0.21
5.827,0.22,-0.02,0.01,0.22
5.837,0.22,-0.02,0.01,0.22
5.847,0.20,-0.02,0.02,0.21
5.857,0.19,-0.03,0.03,0.20
5.867,0.17,-0.04,0.02,0.18
5.877,0.17,-0.03,0.00,0.17
5.887,0.18,-0.02,-0.02,0.18
5.897,0.17,-0.02,-0.03,0.18
5.907,0.16,0.00,-0.06,0.17
5.917,0.17,0.02,-0.04,0.17
5.927,0.15,0.03,-0.03,0.15
5.937,0.14,0.01,-0.02,0.15
5.947,0.14,0.02,-0.01,0.14
5.957,0.12,-0.02,0.02,0.12
5.967,0.10,-0.05,0.03,0.11
5.977,0.07,-0.06,0.04,0.10
5.987,0.07,-0.03,0.05,0.09
5.997,0.06,0.00,0.05,0.08
6.007,0.06,0.02,0.03,0.07
6.017,0.06,0.02,0.00,0.06
6.027,0.06,0.01,0.00,0.06
6.037,0.08,0.01,-0.01,0.08
6.046,0.08,-0.01,-0.03,0.09
6.057,0.08,-0.02,-0.05,0.10
6.067,0.11,-0.01,-0.04,0.12
6.077,0.11,0.02,-0.04,0.12
6.087,0.12,0.04,-0.03,0.13
6.097,0.12,0.04,-0.01,0.12
6.106,0.11,0.02,0.01,0.11
6.117,0.12,0.00,0.02,0.12
6.126,0.12,-0.01,0.03,0.12
6.137,0.11,-0.02,0.05,0.12
6.146,0.09,-0.05,0.05,0.12
6.156,0.06,-0.06,0.08,0.12
6.166,0.05,-0.04,0.08,0.10
6.176,0.05,-0.00,0.08,0.09
6.186,0.05,0.01,0.06,0.08
6.196,0.07,0.01,0.03,0.08
6.206,0.04,-0.05,0.01,0.07
6.216,0.01,-0.10,-0.03,0.10
6.226,0.00,-0.11,-0.05,0.12
6.236,0.02,-0.06,-0.07,0.09
6.246,0.05,0.01,-0.09,0.10
6.256,0.10,0.05,-0.12,0.16
6.266,0.12,0.05,-0.12,0.18
6.276,0.12,0.03,-0.12,0.18
6.286,0.12,-0.00,-0.14,0.19
6.296,0.13,0.03,-0.13,0.19
6.306,0.15,0.09,-0.09,0.20
6.316,0.18,0.13,-0.09,0.24
6.326,0.19,0.14,-0.07,0.24
6.336,0.17,0.10,-0.08,0.21
6.346,0.14,0.06,-0.07,0.17
6.356,0.11,0.04,-0.05,0.13
6.366,0.09,0.06,-0.01,0.11
6.376,0.04,0.06,0.02,0.08
6.386,0.01,0.05,0.04,0.06
6.396,-0.01,0.01,0.05,0.06
6.406,-0.04,-0.02,0.08,0.09
6.416,-0.03,-0.04,0.08,0.10
6.426,-0.01,-0.07,0.12,0.14
6.436,0.02,-0.06,0.14,0.15
6.446,0.05,-0.05,0.14,0.16
6.456,0.04,-0.04,0.15,0.16
6.465,0.04,-0.02,0.16,0.17
6.476,0.04,-0.04,0.12,0.13
6.486,0.06,-0.07,0.07,0.11
6.496,0.08,-0.07,0.04,0.11
6.506,0.14,-0.05,-0.01,0.15
6.516,0.20,-0.06,-0.04,0.21
6.526,0.24,-0.06,-0.03,0.25
6.536,0.23,-0.06,-0.01,0.24
6.545,0.18,-0.07,0.00,0.19
6.555,0.11,-0.08,0.02,0.13
6.565,0.05,-0.07,0.02,0.09
6.575,-0.00,-0.01,0.01,0.01
6.585,-0.00,0.04,0.00,0.04
6.595,0.04,0.08,0.01,0.09
6.605,0.08,0.09,-0.02,0.12
6.615,0.17,0.05,-0.08,0.19
6.625,0.23,0.02,-0.13,0.26
6.635,0.30,-0.03,-0.16,0.34
6.645,0.34,-0.05,-0.17,0.38
6.655,0.33,-0.05,-0.16,0.37
6.665,0.29,-0.05,-0.11,0.31
6.675,0.23,-0.03,-0.04,0.24
6.685,0.16,-0.03,0.03,0.17
6.695,0.09,0.02,0.06,0.11
6.705,0.03,0.05,0.11,0.12
6.715,-0.01,0.06,0.12,0.14
6.725,-0.04,0.05,0.13,0.14
6.735,-0.04,0.01,0.12,0.13
6.745,-0.06,0.00,0.10,0.11
6.755,-0.04,-0.02,0.07,0.08
6.765,-0.01,-0.04,0.05,0.06
6.775,0.02,-0.05,0.01,0.06
6.785,0.10,-0.04,0.02,0.11
6.795,0.14,-0.03,0.01,0.15
6.805,0.18,-0.01,0.00,0.18
6.815,0.20,0.01,-0.01,0.20
6.825,0.19,0.01,0.01,0.19
6.835,0.17,0.01,-0.00,0.17
6.845,0.13,-0.01,0.01,0.13
6.855,0.06,-0.05,0.00,0.08
6.865,-0.01,-0.06,-0.01,0.07
6.875,-0.03,-0.06,-0.04,0.07
6.885,-0.06,-0.02,-0.07,0.09
6.895,-0.07,-0.00,-0.09,0.11
6.905,-0.09,0.02,-0.09,0.13
6.915,-0.05,0.05,-0.10,0.12
6.925,0.01,0.06,-0.13,0.14
6.935,0.10,0.05,-0.14,0.18
6.945,0.18,-0.00,-0.16,0.24
6.955,0.29,-0.04,-0.13,0.32
6.964,0.37,-0.05,-0.10,0.39
6.975,0.43,-0.04,-0.04,0.43
6.985,0.46,-0.01,0.03,0.46
6.994,0.45,-0.01,0.10,0.46
7.004,0.41,-0.02,0.17,0.44
7.014,0.31,-0.03,0.21,0.37
7.024,0.19,-0.02,0.24,0.31
7.035,0.07,-0.03,0.24,0.25
7.044,-0.03,-0.02,0.22,0.22
7.054,-0.10,-0.02,0.16,0.19
7.064,-0.14,-0.01,0.09,0.17
7.074,-0.15,0.00,0.01,0.15
7.084,-0.12,0.03,-0.06,0.14
7.094,-0.08,0.06,-0.14,0.17
7.104,-0.04,0.09,-0.20,0.22
7.114,-0.02,0.05,-0.20,0.21
7.124,0.01,0.03,-0.20,0.21
7.134,0.02,0.00,-0.17,0.17
7.144,0.02,0.00,-0.11,0.11
7.154,0.02,-0.02,-0.05,0.06
7.164,0.02,-0.03,0.02,0.05
7.174,0.06,-0.03,0.08,0.10
7.184,0.09,-0.04,0.13,0.16
7.194,0.14,-0.04,0.14,0.20
7.204,0.20,-0.02,0.17,0.26
7.214,0.23,-0.03,0.19,0.30
7.224,0.23,-0.05,0.18,0.30
7.234,0.24,-0.04,0.16,0.30
7.244,0.22,-0.03,0.13,0.26
7.254,0.18,-0.01,0.09,0.20
7.264,0.12,-0.02,0.05,0.13
7.274,0.07,-0.03,0.01,0.08
7.284,0.03,-0.02,-0.02,0.04
7.294,0.01,0.01,-0.06,0.06
7.304,0.01,0.03,-0.11,0.11
7.314,0.02,0.06,-0.14,0.15
7.324,0.02,0.06,-0.15,0.16
7.334,0.04,0.07,-0.14,0.16
7.344,0.07,0.05,-0.13,0.16
7.354,0.09,0.02,-0.10,0.14
7.364,0.10,-0.02,-0.06,0.12
7.374,0.11,-0.08,-0.02,0.14
7.384,0.09,-0.10,0.02,0.14
7.394,0.12,-0.06,0.04,0.14
7.404,0.13,-0.01,0.06,0.14
7.414,0.13,0.01,0.03,0.14
7.424,0.15,0.02,0.04,0.15
7.434,0.15,0.03,0.04,0.16
7.443,0.13,0.03,0.05,0.14
7.454,0.09,0.03,0.02,0.10
7.463,0.07,0.02,0.01,0.07
7.473,0.04,-0.00,-0.00,0.04
7.483,0.02,-0.01,-0.03,0.04
7.493,0.02,0.01,-0.06,0.07
7.503,0.02,0.04,-0.11,0.12
7.513,0.03,0.04,-0.14,0.15
7.523,0.04,0.05,-0.17,0.18
7.534,0.08,0.05,-0.19,0.21
7.543,0.11,0.04,-0.19,0.23
7.553,0.14,0.02,-0.18,0.23
7.563,0.14,0.00,-0.16,0.21
7.573,0.15,-0.03,-0.12,0.19
7.583,0.15,-0.06,-0.09,0.19
7.593,0.16,-0.06,-0.09,0.19
7.603,0.18,-0.06,-0.05,0.20
7.613,0.19,-0.04,-0.06,0.20
7.623,0.20,-0.02,-0.05,0.21
7.633,0.24,-0.01,-0.05,0.25
7.643,0.26,-0.01,-0.05,0.27
7.653,0.26,-0.02,-0.06,0.26
7.663,0.23,-0.01,-0.05,0.24
7.673,0.18,-0.01,-0.04,0.19
7.683,0.15,0.00,-0.03,0.15
7.693,0.10,-0.00,-0.04,0.10
7.703,0.06,0.01,-0.02,0.07
7.713,0.04,0.03,-0.03,0.06
7.723,-0.00,0.04,-0.02,0.04
7.733,-0.03,0.02,-0.03,0.05
7.743,-0.04,-0.00,-0.04,0.05
7.753,-0.04,-0.00,-0.04,0.06
7.763,-0.04,-0.01,-0.04,0.06
7.773,-0.02,-0.02,-0.05,0.06
7.782,0.00,0.00,-0.05,0.05
7.793,0.00,0.00,-0.04,0.04
7.803,0.03,0.00,-0.01,0.03
7.813,0.03,-0.00,0.04,0.05
7.823,0.03,-0.01,0.08,0.09
7.833,0.03,-0.00,0.10,0.11
7.843,0.05,-0.01,0.13,0.14
7.853,0.06,-0.01,0.14,0.15
7.863,0.05,-0.00,0.12,0.14
7.873,0.05,-0.00,0.12,0.13
7.882,0.06,-0.02,0.11,0.12
7.893,0.08,-0.03,0.08,0.12
7.903,0.12,-0.01,0.07,0.14
7.913,0.13,0.01,0.05,0.15
7.922,0.13,0.04,0.06,0.14
7.933,0.10,0.03,0.08,0.13
7.942,0.05,0.02,0.10,0.11
7.952,-0.00,0.03,0.10,0.11
7.962,-0.04,0.04,0.08,0.10
7.972,-0.06,0.01,0.08,0.10
7.982,-0.03,0.01,0.04,0.05
7.992,0.01,0.01,-0.02,0.02
8.002,0.06,0.02,-0.08,0.10
8.012,0.10,0.01,-0.09,0.14
8.022,0.12,0.02,-0.13,0.18
8.032,0.14,0.00,-0.14,0.20
8.042,0.13,-0.01,-0.13,0.18
8.052,0.11,-0.02,-0.09,0.14
8.062,0.07,-0.02,-0.05,0.09
8.072,0.02,-0.01,-0.01,0.03
8.082,0.01,0.03,0.01,0.03
8.092,0.03,0.04,0.04,0.07
8.102,0.06,0.04,0.05,0.09
8.112,0.10,0.03,0.03,0.10
8.122,0.12,-0.01,0.02,0.12
8.132,0.13,-0.04,0.00,0.14
8.142,0.16,-0.07,-0.00,0.17
8.152,0.16,-0.06,0.00,0.17
8.162,0.16,-0.02,-0.00,0.16
8.172,0.16,0.02,0.01,0.17
8.182,0.15,0.01,0.01,0.15
8.192,0.15,-0.00,0.04,0.15
8.202,0.13,-0.02,0.05,0.14
8.212,0.11,-0.04,0.03,0.12
8.222,0.10,-0.04,0.03,0.11
8.232,0.06,-0.03,0.01,0.07
8.242,0.06,0.01,-0.00,0.06
8.252,0.06,0.03,-0.03,0.07
8.262,0.07,0.02,-0.05,0.09
8.272,0.08,-0.00,-0.08,0.11
8.281,0.09,-0.01,-0.10,0.14
8.292,0.09,-0.01,-0.12,0.15
8.302,0.08,-0.00,-0.12,0.15
8.312,0.09,0.03,-0.14,0.17
8.322,0.09,0.05,-0.14,0.18
8.332,0.09,0.05,-0.13,0.17
8.341,0.07,0.02,-0.12,0.14
8.352,0.08,0.00,-0.09,0.12
8.361,0.08,-0.01,-0.06,0.10
8.372,0.10,-0.02,-0.01,0.10
8.381,0.12,-0.03,0.01,0.12
8.391,0.11,-0.05,0.03,0.12
8.401,0.12,-0.06,0.05,0.14
8.411,0.14,-0.05,0.05,0.16
8.421,0.16,-0.04,0.04,0.17
8.431,0.19,-0.02,0.02,0.19
8.441,0.19,-0.01,0.02,0.19
8.451,0.17,0.00,0.00,0.17
8.461,0.14,-0.01,0.01,0.14
8.471,0.10,0.00,0.02,0.10
8.481,0.09,0.02,0.00,0.09
8.491,0.07,0.02,-0.00,0.07
8.501,0.06,0.00,-0.03,0.07
8.511,0.06,-0.02,-0.03,0.07
8.521,0.06,-0.03,-0.05,0.08
8.531,0.08,-0.02,-0.06,0.11
8.541,0.09,-0.00,-0.07,0.11
8.551,0.11,0.02,-0.06,0.12
8.561,0.11,0.02,-0.05,0.12
8.571,0.10,0.00,-0.03,0.11
8.581,0.09,0.01,-0.00,0.09
8.591,0.09,0.01,0.02,0.09
8.601,0.07,-0.02,0.05,0.09
8.611,0.06,-0.05,0.09,0.11
8.621,0.07,-0.07,0.09,0.13
8.631,0.07,-0.08,0.08,0.13
8.641,0.08,-0.06,0.08,0.12
8.651,0.08,-0.03,0.05,0.10
8.661,0.13,0.00,0.01,0.13
8.671,0.14,0.02,-0.00,0.14
8.681,0.13,0.02,0.02,0.13
8.691,0.10,0.00,0.01,0.10
8.701,0.06,-0.01,0.02,0.07
8.711,0.04,-0.02,0.03,0.05
8.721,0.02,-0.01,0.02,0.03
8.731,0.02,0.00,0.04,0.04
8.741,0.02,0.00,0.04,0.04
8.751,0.04,-0.00,0.03,0.05
8.761,0.06,0.02,0.01,0.07
8.771,0.09,-0.00,0.01,0.09
8.781,0.13,-0.01,0.00,0.13
8.791,0.15,0.01,0.00,0.15
8.800,0.18,0.02,0.01,0.18
8.811,0.19,0.02,0.01,0.19
8.820,0.17,-0.00,0.02,0.17
8.831,0.14,-0.02,0.03,0.15
8.840,0.10,-0.03,0.02,0.11
8.850,0.07,-0.01,0.02,0.07
8.860,0.05,-0.01,0.01,0.05
8.870,0.05,0.00,-0.01,0.05
8.880,0.02,-0.01,-0.05,0.05
8.890,0.04,-0.02,-0.06,0.08
8.900,0.06,-0.00,-0.09,0.11
8.910,0.11,0.03,-0.12,0.16
8.920,0.15,0.04,-0.12,0.20
8.930,0.17,0.02,-0.13,0.21
8.940,0.16,0.02,-0.13,0.21
8.950,0.16,0.01,-0.14,0.21
8.960,0.16,0.03,-0.12,0.21
8.970,0.15,0.03,-0.10,0.19
8.980,0.14,0.03,-0.09,0.17
8.990,0.10,0.03,-0.08,0.13
9.000,0.07,0.02,-0.06,0.10
9.010,0.05,0.01,-0.04,0.07
9.020,0.03,-0.02,-0.01,0.03
9.030,0.02,-0.04,0.01,0.05
9.040,0.03,-0.02,0.03,0.05
9.050,0.04,0.01,0.03,0.06
9.060,0.08,0.04,0.05,0.11
9.070,0.10,-0.01,0.06,0.12
9.080,0.10,-0.10,0.04,0.14
9.090,0.11,-0.10,0.03,0.15
9.100,0.15,-0.02,0.02,0.15
9.110,0.16,0.03,-0.01,0.17
9.120,0.14,0.04,-0.03,0.15
9.130,0.13,0.02,-0.03,0.14
9.140,0.13,0.01,-0.04,0.13
9.150,0.12,0.01,-0.05,0.12
9.160,0.09,-0.01,-0.04,0.10
9.170,0.06,-0.02,-0.05,0.08
9.180,0.03,-0.04,-0.04,0.06
9.190,0.02,-0.00,-0.03,0.04
9.200,0.04,0.03,-0.02,0.05
9.210,0.06,0.04,-0.01,0.07
9.220,0.07,-0.01,0.01,0.07
9.230,0.07,-0.04,0.03,0.09
9.239,0.10,-0.06,0.05,0.12
9.249,0.09,-0.05,0.04,0.11
9.259,0.09,-0.01,0.05,0.10
9.270,0.09,0.04,0.03,0.11
9.279,0.10,0.02,0.02,0.11
9.289,0.09,-0.01,0.02,0.09
9.299,0.11,-0.01,0.03,0.11
9.309,0.10,0.00,0.03,0.11
9.319,0.10,0.01,0.00,0.10
9.329,0.09,0.01,0.01,0.09
9.339,0.10,0.02,0.03,0.10
9.349,0.09,0.02,0.02,0.09
9.359,0.06,0.02,0.03,0.07
9.369,0.04,0.02,0.03,0.06
9.379,0.03,0.01,0.03,0.04
9.389,0.01,-0.00,0.04,0.04
9.399,0.02,-0.04,0.04,0.06
9.409,0.02,-0.05,0.02,0.06
9.419,0.02,-0.07,-0.00,0.07
9.429,0.04,-0.09,-0.01,0.10
9.439,0.04,-0.07,-0.01,0.08
9.449,0.08,-0.04,-0.02,0.09
9.459,0.08,-0.02,-0.03,0.09
9.469,0.07,-0.05,-0.04,0.09
9.479,0.06,-0.08,-0.07,0.12
9.489,0.06,-0.09,-0.09,0.14
9.499,0.06,-0.04,-0.11,0.14
9.509,0.08,0.01,-0.13,0.15
9.519,0.10,0.06,-0.11,0.16
9.529,0.08,0.11,-0.09,0.16
9.539,0.08,0.11,-0.07,0.15
9.549,0.07,0.08,-0.03,0.11
9.559,0.08,0.04,0.00,0.09
9.569,0.09,0.02,0.04,0.10
9.579,0.12,-0.00,0.08,0.14
9.589,0.18,0.02,0.10,0.21
9.599,0.23,0.03,0.08,0.24
9.609,0.24,0.01,0.08,0.26
9.619,0.23,-0.02,0.10,0.25
9.629,0.23,-0.04,0.12,0.26
9.639,0.18,-0.06,0.14,0.24
9.649,0.14,-0.03,0.14,0.21
9.658,0.09,0.00,0.12,0.15
9.669,0.07,0.03,0.10,0.13
9.679,0.05,0.04,0.05,0.08
9.689,0.05,0.01,0.00,0.05
9.699,0.05,-0.00,-0.04,0.07
9.708,0.07,-0.02,-0.08,0.11
9.718,0.07,-0.04,-0.10,0.13
9.728,0.07,-0.04,-0.10,0.13
9.738,0.10,-0.04,-0.13,0.17
9.748,0.12,-0.03,-0.15,0.20
9.758,0.15,-0.03,-0.17,0.23
9.768,0.15,-0.02,-0.17,0.23
9.778,0.12,-0.03,-0.17,0.21
9.788,0.08,-0.04,-0.16,0.18
9.798,0.07,-0.01,-0.12,0.14
9.808,0.06,0.04,-0.09,0.12
9.818,0.04,0.09,-0.06,0.11
9.828,0.04,0.12,-0.02,0.13
9.838,0.04,0.12,0.02,0.12
9.848,0.03,0.05,0.04,0.07
9.858,0.04,-0.02,0.05,0.07
9.868,0.06,-0.06,0.06,0.10
9.878,0.07,-0.08,0.03,0.11
9.888,0.08,-0.08,0.03,0.12
9.898,0.10,-0.06,-0.01,0.11
9.908,0.11,-0.05,-0.04,0.13
9.918,0.12,-0.02,-0.04,0.13
9.928,0.14,-0.04,-0.05,0.16
9.938,0.15,-0.03,-0.07,0.17
9.948,0.16,-0.01,-0.05,0.17
9.958,0.16,-0.01,-0.04,0.17
9.968,0.15,-0.01,-0.06,0.16
9.978,0.17,-0.01,-0.05,0.17
9.988,0.18,-0.02,-0.07,0.19
9.998,0.18,-0.03,-0.07,0.19
10.008,0.19,-0.04,-0.08,0.21
10.018,0.23,-0.04,-0.09,0.25
10.028,0.25,-0.06,-0.11,0.28
10.038,0.28,-0.13,-0.11,0.33
10.048,0.31,-0.15,-0.09,0.36
10.058,0.33,-0.10,-0.05,0.35
10.068,0.31,-0.01,-0.01,0.31
10.078,0.25,0.08,0.05,0.26
10.088,0.18,0.12,0.06,0.23
10.098,0.11,0.12,0.04,0.17
10.108,0.02,0.09,-0.03,0.10
10.118,-0.03,0.05,-0.08,0.10
10.127,-0.07,0.06,-0.14,0.17
10.137,-0.10,0.05,-0.15,0.19
10.148,-0.09,0.05,-0.15,0.18
10.157,-0.08,0.08,-0.10,0.15
10.167,-0.08,0.11,-0.03,0.14
10.177,-0.09,0.14,0.06,0.17
10.187,-0.11,0.14,0.13,0.22
10.197,-0.14,0.09,0.21,0.27
10.207,-0.17,0.04,0.28,0.33
10.217,-0.20,-0.01,0.32,0.38
10.227,-0.20,-0.05,0.35,0.40
10.237,-0.20,-0.06,0.36,0.41
10.247,-0.15,-0.05,0.33,0.37
10.257,-0.09,-0.04,0.30,0.31
10.267,-0.05,-0.06,0.23,0.24
10.277,0.00,-0.04,0.16,0.16
10.287,0.02,-0.02,0.10,0.11
10.297,0.02,0.04,0.06,0.08
10.307,0.01,0.08,0.00,0.08
10.317,-0.02,0.08,-0.02,0.09
10.327,-0.06,0.07,-0.07,0.12
10.337,-0.08,0.06,-0.11,0.14
10.347,-0.08,0.06,-0.15,0.18
10.357,-0.05,0.06,-0.16,0.18
10.367,-0.02,0.05,-0.20,0.20
10.377,0.01,0.04,-0.20,0.21
10.387,0.04,0.03,-0.20,0.21
10.397,0.07,0.02,-0.20,0.21
10.407,0.09,0.03,-0.18,0.20
10.417,0.13,0.02,-0.14,0.19
10.427,0.13,0.03,-0.09,0.17
10.437,0.12,0.03,-0.02,0.13
10.447,0.11,0.02,0.03,0.12
10.457,0.10,-0.00,0.08,0.12
10.467,0.06,-0.03,0.12,0.14
10.477,0.02,-0.03,0.13,0.13
10.487,-0.00,-0.04,0.10,0.11
10.497,-0.02,-0.04,0.08,0.09
10.507,-0.02,-0.00,0.03,0.04
10.517,-0.01,0.01,0.00,0.02
10.527,-0.01,-0.02,-0.04,0.05
10.537,0.02,-0.06,-0.06,0.09
10.547,0.06,-0.11,-0.07,0.15
10.557,0.08,-0.19,-0.10,0.22
10.567,0.09,-0.23,-0.12,0.27
10.576,0.14,-0.19,-0.11,0.26
10.587,0.19,-0.10,-0.09,0.23
10.596,0.27,-0.00,-0.08,0.28
10.606,0.33,0.08,-0.08,0.35
10.616,0.35,0.02,-0.07,0.36
10.626,0.35,-0.08,-0.07,0.37
10.636,0.36,-0.13,-0.07,0.40
10.646,0.38,-0.16,-0.07,0.41
10.656,0.35,-0.12,-0.07,0.37
10.666,0.30,-0.03,-0.07,0.30
10.676,0.24,0.06,-0.05,0.25
10.686,0.18,0.14,-0.05,0.23
10.696,0.12,0.20,-0.03,0.23
10.706,0.05,0.25,-0.01,0.26
10.716,-0.03,0.26,0.01,0.26
10.726,-0.13,0.23,0.03,0.27
10.736,-0.23,0.18,0.03,0.29
10.746,-0.27,0.12,0.06,0.31
10.756,-0.28,0.06,0.08,0.30
10.766,-0.25,-0.02,0.10,0.27
10.776,-0.16,-0.08,0.14,0.23
10.786,-0.19,-0.08,0.18,0.27
10.796,-0.19,-0.05,0.22,0.29
10.806,-0.15,0.02,0.25,0.30
10.816,-0.11,0.04,0.26,0.29
10.826,-0.06,0.04,0.24,0.25
10.836,-0.03,0.01,0.25,0.25
10.846,-0.01,-0.01,0.24,0.25
10.856,0.07,-0.07,0.20,0.22
10.866,0.12,-0.09,0.13,0.20
10.876,0.19,-0.11,0.06,0.23
10.886,0.26,-0.13,-0.02,0.29
10.896,0.31,-0.10,-0.09,0.34
10.906,0.38,-0.07,-0.17,0.43
10.916,0.43,-0.04,-0.23,0.49
10.926,0.47,0.02,-0.29,0.55
10.936,0.51,0.06,-0.33,0.61
10.946,0.50,0.06,-0.35,0.62
10.956,0.48,0.04,-0.35,0.60
10.966,0.40,-0.01,-0.35,0.53
10.976,0.30,-0.04,-0.32,0.44
10.986,0.21,-0.04,-0.30,0.37
10.996,0.12,-0.06,-0.27,0.30
11.006,0.04,-0.03,-0.21,0.21
11.016,-0.03,0.00,-0.17,0.17
11.026,-0.07,0.03,-0.11,0.13
11.035,-0.10,0.04,-0.08,0.13
11.046,-0.09,0.03,-0.03,0.10
11.055,-0.10,0.02,0.01,0.10
11.065,-0.07,-0.02,0.09,0.12
11.075,-0.09,-0.04,0.15,0.18
11.085,-0.08,-0.05,0.19,0.21
11.095,-0.07,-0.07,0.22,0.24
11.105,-0.06,-0.06,0.22,0.24
11.115,-0.05,-0.04,0.21,0.21
11.125,-0.05,-0.01,0.16,0.16
11.135,-0.04,0.00,0.11,0.12
11.145,-0.04,0.02,0.07,0.09
11.155,-0.06,0.03,0.05,0.09
11.165,-0.09,0.06,0.03,0.11
11.175,-0.12,0.07,0.01,0.14
11.185,-0.17,0.06,0.02,0.18
11.195,-0.18,0.07,0.02,0.20
11.205,-0.23,0.07,0.01,0.24
11.215,-0.24,0.06,-0.00,0.24
11.225,-0.23,0.07,-0.03,0.24
11.235,-0.19,0.08,-0.03,0.21
11.245,-0.14,0.08,-0.01,0.16
11.255,-0.09,0.07,-0.02,0.11
11.265,-0.03,0.06,-0.02,0.07
11.275,0.06,0.02,-0.02,0.06
11.285,0.13,-0.01,-0.02,0.13
11.295,0.20,-0.05,-0.01,0.21
11.305,0.29,-0.06,-0.01,0.30
11.315,0.37,-0.08,-0.01,0.38
11.325,0.46,-0.11,0.00,0.47
11.335,0.55,-0.13,0.00,0.56
11.345,0.63,-0.18,-0.03,0.66
11.355,0.72,-0.22,-0.03,0.76
11.365,0.86,-0.25,-0.04,0.89
11.375,0.99,-0.22,-0.01,1.02
11.385,1.12,-0.17,0.03,1.13
11.395,1.20,-0.12,0.08,1.20
11.405,1.15,-0.09,0.15,1.16
11.415,0.99,-0.11,0.17,1.01
11.425,0.75,-0.14,0.15,0.77
11.435,0.47,-0.17,0.12,0.51
11.445,0.25,-0.12,0.06,0.29
11.455,0.16,-0.04,-0.01,0.16
11.465,0.12,0.00,-0.11,0.16
11.474,0.06,0.06,-0.22,0.24
11.485,-0.05,0.06,-0.27,0.29
11.495,-0.14,0.07,-0.30,0.34
11.504,-0.23,0.04,-0.34,0.41
11.514,-0.28,0.03,-0.35,0.45
11.524,-0.31,0.05,-0.37,0.48
11.534,-0.32,0.05,-0.35,0.48
11.544,-0.34,0.08,-0.34,0.48
11.554,-0.41,0.15,-0.28,0.52
11.564,-0.41,0.17,-0.23,0.50
11.574,-0.38,0.14,-0.17,0.44
11.584,-0.35,0.01,-0.10,0.37
11.594,-0.30,-0.03,0.00,0.30
11.604,-0.19,-0.03,0.09,0.21
11.614,-0.02,-0.02,0.19,0.19
11.624,0.15,0.00,0.28,0.32
11.634,0.28,0.01,0.30,0.41
11.644,0.38,0.00,0.30,0.48
11.654,0.43,-0.05,0.27,0.51
11.664,0.43,-0.03,0.23,0.49
11.674,0.27,0.05,0.12,0.31
11.684,-0.01,0.12,0.05,0.13
11.694,-0.25,0.14,-0.04,0.29
11.704,-0.36,0.13,-0.15,0.41
11.714,-0.26,0.12,-0.24,0.37
11.724,-0.13,0.14,-0.27,0.33
11.734,-0.09,0.17,-0.28,0.34
11.744,-0.19,0.19,-0.18,0.32
11.754,-0.20,0.17,-0.09,0.28
11.764,-0.16,0.15,0.02,0.22
11.774,-0.14,0.13,0.06,0.20
11.784,-0.11,0.17,0.04,0.20
11.794,-0.02,0.17,-0.02,0.17
11.804,0.11,0.14,-0.07,0.19
11.814,0.23,0.07,-0.04,0.24
11.824,0.32,0.02,0.07,0.32
11.834,0.33,-0.01,0.27,0.42
11.844,0.33,-0.02,0.52,0.62
11.854,0.31,-0.01,0.72,0.78
11.864,0.34,-0.03,0.82,0.89
11.874,0.38,-0.04,0.73,0.82
11.884,0.46,-0.07,0.51,0.69
11.893,0.58,-0.06,0.30,0.66
11.904,0.66,0.04,0.10,0.67
11.914,0.77,0.07,-0.05,0.77
11.924,0.81,0.01,-0.14,0.83
11.933,0.75,-0.09,-0.18,0.77
11.944,0.68,-0.10,-0.13,0.70
11.953,0.85,-0.08,-0.13,0.86
11.964,1.14,-0.10,-0.18,1.15
11.973,1.24,-0.15,-0.23,1.27
11.983,1.05,-0.27,-0.22,1.10
11.993,0.73,-0.30,-0.23,0.82
12.003,0.26,-0.27,-0.13,0.40
12.013,-0.26,-0.28,-0.00,0.38
12.023,-0.72,-0.23,0.13,0.77
12.033,-1.05,-0.15,0.32,1.11
12.043,-1.26,-0.11,0.48,1.35
12.053,-1.41,0.02,0.61,1.54
12.063,-1.46,0.21,0.71,1.64
12.073,-1.52,0.47,0.73,1.76
12.083,-1.70,0.46,0.71,1.91
12.093,-1.58,0.42,0.66,1.76
12.103,-1.01,0.37,0.61,1.24
12.113,-0.46,0.21,0.52,0.72
12.123,-0.07,0.09,0.41,0.42
12.133,0.13,0.04,0.27,0.30
12.143,0.16,0.02,0.10,0.20
12.153,0.22,0.02,0.01,0.22
12.163,0.31,0.02,-0.03,0.31
12.173,0.44,0.02,-0.08,0.45
12.183,0.55,0.03,-0.16,0.57
12.193,0.62,0.01,-0.18,0.65
12.203,0.66,-0.03,-0.16,0.68
12.213,0.65,-0.07,-0.14,0.67
12.223,0.61,-0.13,-0.08,0.63
12.233,0.52,-0.15,0.03,0.54
12.243,0.44,-0.09,0.12,0.47
12.253,0.39,-0.03,0.21,0.44
12.263,0.37,-0.04,0.26,0.46
12.273,0.34,-0.04,0.32,0.47
12.283,0.14,-0.08,0.42,0.45
12.293,-0.03,-0.16,0.46,0.49
12.303,-0.01,-0.24,0.47,0.52
12.313,0.05,-0.28,0.44,0.52
12.323,0.04,-0.33,0.37,0.50
12.333,-0.06,-0.33,0.29,0.44
12.343,-0.20,-0.20,0.25,0.38
12.353,-0.21,-0.02,0.32,0.38
12.363,-0.10,0.15,0.41,0.44
12.372,0.03,0.21,0.52,0.57
12.383,0.04,0.20,0.62,0.65
12.392,0.07,0.01,0.65,0.65
12.402,0.07,-0.02,0.67,0.67
12.412,0.09,-0.07,0.66,0.67
12.422,0.19,-0.16,0.65,0.70
12.433,0.30,-0.13,0.64,0.72
12.442,0.31,-0.02,0.62,0.70
12.452,0.26,0.05,0.60,0.66
12.462,0.17,0.09,0.54,0.58
12.472,0.04,0.13,0.47,0.49
12.482,-0.11,0.12,0.41,0.44
12.492,-0.15,0.16,0.38,0.44
12.502,-0.17,0.19,0.35,0.43
12.512,-0.17,0.20,0.31,0.41
12.522,-0.19,0.19,0.23,0.35
12.532,-0.23,0.17,0.14,0.32
12.542,-0.33,0.16,0.03,0.37
12.552,-0.37,0.15,-0.05,0.40
12.562,-0.42,0.16,-0.14,0.48
12.572,-0.47,0.17,-0.22,0.55
12.582,-0.47,0.17,-0.30,0.58
12.592,-0.47,0.20,-0.40,0.65
12.602,-0.43,0.23,-0.48,0.68
12.612,-0.40,0.26,-0.58,0.75
12.622,-0.35,0.26,-0.58,0.72
12.632,-0.30,0.20,-0.52,0.64
12.642,-0.29,0.13,-0.45,0.55
12.652,-0.29,0.07,-0.37,0.47
12.662,-0.31,0.10,-0.32,0.46
12.672,-0.39,0.12,-0.25,0.48
12.682,-0.46,0.14,-0.23,0.53
12.692,-0.54,0.15,-0.21,0.60
12.702,-0.60,0.15,-0.19,0.64
12.712,-0.63,0.19,-0.16,0.68
12.722,-0.70,0.24,-0.13,0.76
12.732,-0.77,0.26,-0.12,0.82
12.742,-0.84,0.27,-0.10,0.89
12.752,-0.89,0.26,-0.10,0.94
12.762,-0.98,0.22,-0.08,1.01
12.772,-1.03,0.16,-0.08,1.04
12.782,-1.03,0.08,-0.06,1.04
12.791,-1.02,-0.04,-0.08,1.03
12.802,-1.01,-0.14,-0.06,1.03
12.811,-0.94,-0.23,-0.04,0.97
12.822,-0.91,-0.30,0.01,0.95
12.832,-0.86,-0.34,0.10,0.92
12.841,-0.56,-0.29,0.22,0.67
12.851,-0.17,-0.24,0.36,0.47
12.861,0.15,-0.25,0.49,0.57
12.871,0.36,-0.37,0.60,0.79
12.881,0.49,-0.59,0.68,1.02
12.891,0.67,-0.79,0.73,1.27
12.901,0.87,-0.89,0.77,1.47
12.911,1.13,-0.83,0.79,1.61
12.921,1.42,-0.58,0.82,1.74
12.931,1.60,-0.16,0.88,1.84
12.941,1.75,0.31,0.96,2.02
12.951,1.64,0.76,1.03,2.08
12.961,1.24,1.04,1.06,1.93
12.971,0.65,1.05,1.11,1.66
12.981,-0.07,0.88,1.13,1.44
12.991,-0.84,0.61,1.12,1.53
13.001,-1.49,0.32,1.06,1.86
13.011,-1.98,0.12,0.97,2.21
13.021,-2.34,-0.01,0.89,2.50
13.031,-2.65,-0.08,0.79,2.77
13.041,-2.79,-0.06,0.74,2.89
13.051,-2.75,0.04,0.73,2.85
13.061,-2.53,0.19,0.73,2.64
13.071,-2.25,0.36,0.71,2.39
13.081,-1.93,0.48,0.69,2.11
13.091,-1.67,0.49,0.73,1.89
13.101,-1.52,0.35,0.80,1.75
13.111,-1.61,0.05,0.88,1.84
13.121,-1.78,-0.32,0.99,2.06
13.131,-1.71,-0.61,1.23,2.19
13.141,-1.42,-0.77,1.60,2.28
13.151,-1.00,-0.89,2.54,2.87
13.161,-0.85,-1.11,4.66,4.87
13.171,-1.27,-1.08,6.50,6.71
13.181,-1.75,-0.78,6.56,6.84
13.191,-1.98,-0.47,6.10,6.43
13.201,-2.10,-0.22,5.65,6.03
13.211,-2.11,-0.06,5.18,5.59
13.221,-1.99,-0.03,4.70,5.11
13.231,-1.85,-0.21,4.03,4.44
13.241,-2.14,-0.81,3.22,3.95
13.251,-3.18,-1.85,2.30,4.34
13.261,-4.52,-2.83,1.45,5.52
13.271,-5.27,-3.25,0.84,6.25
13.281,-4.88,-2.97,0.57,5.75
13.290,-3.64,-2.13,0.91,4.32
13.300,-2.32,-0.80,1.91,3.11
13.311,-1.09,0.55,2.67,2.94
13.320,-0.27,1.18,2.97,3.21
13.330,-0.01,1.00,3.22,3.37
13.340,0.07,0.13,3.55,3.55
13.350,0.14,-1.03,3.95,4.08
13.360,0.07,-1.82,3.65,4.08
13.370,0.02,-2.39,2.52,3.47
13.380,0.23,-2.72,1.23,2.99
13.390,0.55,-3.03,0.11,3.08
13.400,0.44,-3.20,-0.93,3.36
13.410,0.48,-3.10,-1.80,3.61
13.420,0.63,-2.69,-2.31,3.60
13.430,0.79,-2.15,-2.52,3.40
13.440,1.32,-1.67,-2.54,3.32
13.450,1.91,-1.07,-2.76,3.52
13.460,2.08,-0.77,-2.19,3.12
13.470,1.73,-0.77,-1.18,2.24
13.480,1.62,-0.77,-0.58,1.89
13.490,1.58,-0.74,-0.48,1.81
13.500,1.08,-0.53,-0.75,1.42
13.510,0.66,-0.13,-1.39,1.54
13.520,0.34,0.43,-1.97,2.04
13.530,-0.21,0.84,-1.82,2.01
13.540,-0.81,1.19,-1.92,2.40
13.550,-1.50,1.42,-2.32,3.11
13.560,-1.84,1.33,-2.54,3.41
13.570,-1.87,1.13,-2.49,3.31
13.580,-1.64,0.94,-2.27,2.96
13.590,-1.33,0.79,-1.98,2.51
13.600,-0.71,0.55,-2.10,2.29
13.610,-0.07,0.31,-2.77,2.79
13.620,-0.49,0.12,-3.52,3.56
13.630,-1.07,0.19,-3.72,3.88
13.640,-1.06,0.35,-3.37,3.55
13.650,-0.69,0.62,-2.82,2.97
13.660,-0.07,0.98,-2.73,2.90
13.670,0.57,1.40,-3.17,3.52
13.680,1.48,1.93,-3.48,4.25
13.690,2.44,2.50,-3.66,5.06
13.700,3.06,2.99,-3.75,5.69
13.710,3.42,3.42,-3.72,6.10
13.720,3.70,3.76,-3.52,6.35
13.729,3.96,4.00,-3.21,6.48
13.739,4.19,4.07,-2.78,6.47
13.749,4.22,3.99,-2.40,6.29
13.760,4.04,3.70,-1.97,5.82
13.769,3.65,3.16,-1.21,4.98
13.779,2.86,2.22,0.33,3.63
13.789,1.38,1.00,2.45,2.99
13.799,-0.50,-0.14,5.19,5.21
13.809,-2.62,-1.64,9.04,9.56
13.819,-4.90,-4.00,13.58,14.99
13.829,-6.87,-6.81,16.27,18.93
13.839,-7.92,-8.46,13.27,17.62
13.849,-6.93,-7.68,6.75,12.36
13.859,-4.54,-5.20,2.63,7.38
13.869,-1.73,-1.46,2.00,3.02
13.879,-0.39,1.80,2.57,3.16
13.889,0.69,4.23,3.27,5.39
13.899,3.08,6.29,1.80,7.23
13.909,4.94,6.40,-3.19,8.69
13.919,5.34,3.92,-6.84,9.52
13.929,5.33,-0.12,-7.13,8.90
13.939,4.97,-4.43,-6.84,9.54
13.949,4.81,-8.66,-6.63,11.92
13.959,4.91,-11.73,-6.04,14.08
13.969,3.99,-11.90,-4.52,13.34
13.979,0.72,-9.60,0.64,9.65
13.989,-0.13,-5.09,-0.96,5.19
13.999,1.20,-1.00,-3.72,4.03
14.009,1.27,2.01,-3.47,4.21
14.019,1.45,4.05,-3.29,5.42
14.029,1.55,5.25,-3.78,6.65
14.039,1.35,5.53,-4.35,7.16
14.049,1.01,4.99,-4.62,6.87
14.059,0.71,3.86,-4.49,5.96
14.069,0.35,2.24,-3.78,4.40
14.079,0.02,0.49,-2.81,2.85
14.089,-0.29,-0.77,-2.00,2.16
14.099,-0.69,-1.45,-1.74,2.36
14.109,-1.12,-1.57,-1.56,2.48
14.119,-1.64,-1.32,-1.48,2.57
14.129,-2.03,-0.61,-1.61,2.66
14.139,-1.92,0.22,-1.54,2.46
14.149,-1.51,1.01,-1.18,2.17
14.159,-1.23,1.70,-0.76,2.23
14.169,-0.97,2.19,-0.16,2.39
14.179,-0.84,2.48,0.37,2.65
14.188,-0.58,2.47,1.54,2.97
14.199,-0.33,1.89,3.20,3.73
14.208,-0.18,0.73,4.59,4.65
14.218,0.13,-0.31,6.56,6.57
14.228,-0.27,-0.95,7.12,7.18
14.238,-0.64,-1.05,5.24,5.38
14.248,-1.28,-0.72,2.62,3.00
14.258,-1.90,-0.31,0.69,2.05
14.268,-1.85,0.27,-0.17,1.88
14.278,-1.42,0.85,-0.26,1.68
14.288,-1.16,1.34,-0.07,1.77
14.298,-1.19,1.50,0.21,1.93
14.308,-1.70,1.10,0.50,2.09
14.318,-2.36,0.47,0.75,2.52
14.328,-2.76,-0.05,1.02,2.94
14.338,-2.88,-0.45,1.32,3.20
14.348,-2.84,-0.83,1.66,3.39
14.358,-2.76,-1.26,2.21,3.76
14.368,-2.24,-1.61,3.42,4.40
14.378,-1.10,-1.71,5.57,5.93
14.388,-0.26,-1.70,7.45,7.64
14.398,-0.92,-1.56,7.14,7.37
14.408,-1.77,-1.19,5.44,5.84
14.418,-1.93,-0.79,3.89,4.41
14.428,-2.04,-0.36,2.84,3.51
14.438,-2.47,0.20,2.17,3.29
14.448,-2.98,0.74,1.82,3.57
14.458,-3.16,1.23,2.11,3.99
14.468,-3.13,1.51,3.25,4.76
14.478,-3.45,1.32,4.44,5.78
14.488,-4.30,0.69,4.39,6.18
14.498,-5.66,-0.38,2.94,6.39
14.508,-6.81,-1.52,1.52,7.15
14.518,-7.12,-2.32,0.92,7.54
14.528,-5.92,-2.61,1.40,6.62
14.538,-3.87,-2.85,2.58,5.45
14.548,-2.45,-3.11,2.90,4.91
14.558,-1.51,-3.37,1.79,4.10
14.568,-1.20,-3.43,-0.48,3.66
14.578,-0.78,-3.72,-2.33,4.46
14.588,-0.18,-4.52,-3.04,5.45
14.598,0.81,-5.55,-3.37,6.54
14.607,1.94,-6.51,-3.51,7.65
14.617,2.63,-7.27,-3.43,8.46
14.627,2.86,-7.83,-3.39,9.00
14.637,2.63,-7.98,-1.41,8.52
14.648,2.09,-7.24,0.53,7.56
14.657,2.05,-5.13,0.65,5.56
14.667,2.41,-2.89,-0.16,3.77
14.677,2.74,-0.86,-2.06,3.53
14.687,1.98,0.70,-3.01,3.67
14.697,0.98,1.88,-2.61,3.36
14.707,0.34,2.60,-1.92,3.25
14.717,0.64,2.43,-1.59,2.97
14.727,1.54,2.12,-1.88,3.23
14.737,2.65,1.95,-2.47,4.11
14.747,3.31,1.88,-3.11,4.92
14.757,2.88,2.00,-3.81,5.18
14.767,1.87,2.38,-4.51,5.43
14.777,1.72,2.49,-5.03,5.87
14.787,2.39,2.32,-4.94,5.96
14.797,2.84,2.25,-5.02,6.19
14.807,2.62,2.20,-5.29,6.30
14.817,2.15,2.35,-5.00,5.93
14.827,1.47,2.33,-4.59,5.35
14.837,1.19,2.15,-4.05,4.74
14.847,1.20,1.84,-3.63,4.24
14.857,1.14,1.40,-3.66,4.08
14.867,0.91,1.03,-3.99,4.22
14.877,0.66,0.80,-4.26,4.38
14.887,0.79,0.82,-4.03,4.18
14.897,1.48,1.21,-3.43,3.92
14.907,2.12,1.77,-3.10,4.16
14.917,2.43,2.22,-2.96,4.43
14.927,2.55,2.36,-2.56,4.31
14.937,2.34,2.34,-2.17,3.95
14.947,1.95,2.13,-1.39,3.20
14.957,1.66,1.84,-0.01,2.48
14.967,1.46,1.58,1.93,2.89
14.977,1.02,1.13,4.33,4.59
14.987,0.10,0.18,7.50,7.50
14.997,-1.44,-1.32,11.06,11.23
15.007,-3.36,-3.05,12.80,13.58
15.017,-4.80,-4.23,11.32,13.00
15.027,-4.50,-4.18,8.21,10.25
15.037,-3.09,-3.14,5.53,7.07
15.047,-1.86,-1.70,4.04,4.76
15.057,-0.96,-0.09,3.82,3.94
15.067,-0.14,1.32,5.42,5.58
15.077,0.12,2.47,7.41,7.81
15.086,-0.13,2.65,1.92,3.28
15.097,0.78,0.55,-5.46,5.54
15.106,3.58,-1.26,-8.48,9.29
15.116,5.58,-2.87,-9.17,11.11
15.126,8.35,-6.39,-4.22,11.33
15.136,8.77,-8.47,-1.70,12.31
15.146,4.93,-7.21,-5.42,10.27
15.156,2.09,-5.14,-6.24,8.35
15.166,-0.71,-3.04,-7.36,7.99
15.176,-1.96,-1.42,-6.86,7.28
15.186,-1.77,-0.20,-5.88,6.14
15.196,-1.46,0.20,-5.77,5.96
15.206,-1.50,0.05,-6.18,6.36
15.216,-1.76,-0.44,-6.45,6.70
15.226,-2.09,-0.91,-6.57,6.95
15.236,-2.59,-1.20,-6.43,7.04
15.246,-2.97,-1.18,-6.04,6.83
15.256,-2.94,-1.03,-5.22,6.08
15.266,-3.17,-0.89,-4.56,5.62
15.276,-3.77,-0.57,-4.03,5.55
15.286,-3.52,0.01,-1.03,3.67
15.296,-1.22,0.90,7.28,7.43
15.306,-1.01,0.57,5.40,5.52
15.316,-2.18,-0.32,0.51,2.26
15.326,-1.90,-0.47,-1.54,2.49
15.336,-0.46,0.04,-2.29,2.34
15.346,0.96,0.83,-2.49,2.80
15.356,2.38,1.46,-1.98,3.42
15.366,3.42,1.83,-0.87,3.97
15.376,3.63,1.72,0.37,4.03
15.386,3.03,1.39,0.89,3.45
15.396,2.10,1.20,0.53,2.48
15.406,1.43,0.98,0.07,1.74
15.416,0.80,0.72,-0.12,1.08
15.426,0.27,0.46,-0.12,0.55
15.436,-0.05,0.27,0.06,0.28
15.446,-0.33,0.16,0.29,0.47
15.456,-0.62,0.13,0.39,0.74
15.466,-0.98,0.20,0.52,1.13
15.476,-1.35,0.27,0.70,1.54
15.486,-1.62,0.28,0.89,1.87
15.496,-1.74,0.25,1.11,2.08
15.506,-1.76,0.25,1.15,2.12
15.516,-1.84,0.18,1.03,2.12
15.526,-1.88,0.06,0.83,2.06
15.536,-1.88,-0.08,0.86,2.06
15.545,-1.75,-0.20,1.18,2.12
15.555,-1.47,-0.14,1.80,2.33
15.565,-1.05,0.07,2.83,3.02
15.576,-0.62,0.39,3.83,3.90
15.585,-0.68,0.72,4.14,4.26
15.595,-1.35,0.90,3.64,3.99
15.605,-1.92,0.94,2.86,3.57
15.615,-2.19,0.97,2.21,3.26
15.625,-2.34,0.95,1.80,3.10
15.635,-2.30,0.99,1.51,2.93
15.645,-2.33,0.90,1.34,2.84
15.655,-2.37,0.69,1.45,2.86
15.665,-1.94,0.59,2.17,2.97
15.675,-1.60,0.60,3.51,3.91
15.685,-1.76,0.51,5.00,5.33
15.695,-2.37,0.27,5.99,6.45
15.705,-3.22,0.14,6.18,6.97
15.715,-3.88,0.26,5.57,6.80
15.725,-4.31,0.54,4.47,6.24
15.735,-4.63,0.54,3.52,5.84
15.745,-5.20,0.10,2.64,5.83
15.755,-6.03,-0.84,1.23,6.21
15.765,-6.95,-1.82,-0.42,7.20
15.775,-7.73,-2.37,-1.51,8.22
15.785,-7.93,-2.21,-1.85,8.43
15.795,-7.25,-1.36,-1.60,7.54
15.805,-5.62,-0.28,-1.33,5.78
15.815,-3.39,0.41,-1.46,3.71
15.825,-1.51,0.15,-1.91,2.44
15.835,-0.49,-0.78,-2.60,2.76
15.845,0.16,-2.19,-3.14,3.83
15.855,0.68,-3.94,-3.45,5.28
15.865,1.39,-5.94,-3.56,7.06
15.875,2.32,-7.89,-3.56,8.96
15.885,3.25,-9.46,-3.06,10.46
15.895,3.65,-10.32,-1.95,11.12
15.905,2.10,-8.99,-0.91,9.28
15.915,1.17,-6.06,0.00,6.18
15.925,2.13,-3.60,0.82,4.27
15.935,2.88,-1.39,0.12,3.20
15.945,3.62,0.22,-1.14,3.80
15.955,4.02,1.35,-2.32,4.83
15.965,3.61,2.06,-3.61,5.50
15.974,2.59,2.33,-4.98,6.08
15.984,1.78,2.49,-5.16,6.00
15.995,1.29,2.66,-4.26,5.19
16.004,0.96,2.73,-3.41,4.48
16.015,0.68,2.82,-3.04,4.20
16.024,0.67,2.84,-3.09,4.25
16.034,1.00,2.65,-3.28,4.34
16.044,1.22,2.26,-3.50,4.34
16.054,1.54,1.95,-3.69,4.45
16.064,1.63,1.82,-4.22,4.88
16.074,1.23,1.82,-4.64,5.14
16.084,0.61,1.82,-4.74,5.12
16.094,-0.04,1.75,-4.43,4.77
16.104,-0.58,1.57,-3.78,4.14
16.114,-0.88,1.27,-3.07,3.44
16.124,-0.68,0.88,-2.65,2.87
16.134,-0.04,0.65,-2.40,2.49
16.144,0.94,0.76,-2.15,2.47
16.154,1.82,1.03,-1.91,2.83
16.164,2.21,1.03,-1.53,2.88
16.174,2.47,0.75,-0.85,2.72
16.184,2.65,0.39,-0.03,2.68
16.194,2.68,-0.06,0.70,2.77
16.204,2.48,-0.32,1.32,2.83
16.214,2.06,-0.29,1.83,2.77
16.224,1.37,-0.20,2.23,2.63
16.234,0.51,-0.05,2.53,2.59
16.244,-0.46,0.06,2.70,2.74
16.254,-1.38,0.09,2.94,3.24
16.264,-2.26,0.01,3.54,4.20
16.274,-3.05,-0.25,4.35,5.32
16.284,-3.58,-0.52,5.19,6.33
16.294,-3.84,-0.78,5.39,6.67
16.304,-3.78,-0.76,4.52,5.94
16.314,-3.47,-0.40,3.04,4.63
16.324,-2.87,0.14,1.68,3.33
16.334,-2.01,1.03,0.76,2.38
16.344,-1.17,1.96,1.02,2.50
16.354,-0.26,3.06,2.05,3.69
16.364,-0.00,3.96,1.29,4.17
16.373,0.55,3.83,-3.05,4.93
16.383,1.99,2.12,-7.39,7.95
16.394,2.80,-0.13,-8.48,8.93
16.403,2.18,-3.15,-7.54,8.46
16.414,2.82,-7.66,-3.64,8.94
16.423,6.80,-14.75,7.88,18.05
16.434,6.42,-17.32,6.47,19.57
16.443,3.61,-13.37,-1.48,13.93
16.453,2.83,-7.42,-5.95,9.92
16.463,1.73,-2.54,-6.84,7.50
16.473,0.58,0.43,-5.57,5.61
16.483,-0.06,2.48,-4.43,5.08
16.493,-0.26,3.91,-4.18,5.73
16.503,-0.16,4.54,-4.46,6.37
16.513,-0.23,4.38,-5.11,6.74
16.523,-0.69,3.44,-5.93,6.89
16.533,-1.16,2.00,-6.28,6.69
16.543,-1.72,0.52,-5.95,6.21
16.553,-2.33,-0.93,-5.59,6.12
16.563,-2.65,-2.10,-5.36,6.33
16.573,-2.54,-2.63,-5.28,6.42
16.583,-2.71,-2.46,-5.37,6.50
16.593,-3.15,-1.62,-5.16,6.26
16.603,-2.78,-0.58,-4.43,5.26
16.613,-1.79,0.44,-3.48,3.94
16.623,0.18,1.54,-0.12,1.56
16.633,4.78,2.29,10.28,11.57
16.643,4.21,1.27,8.26,9.36
16.653,2.03,0.11,3.92,4.41
16.663,0.73,-0.70,1.40,1.73
16.673,0.49,-1.03,-0.17,1.16
16.683,0.78,-0.89,-1.09,1.61
16.693,0.71,-0.70,-1.45,1.76
16.703,0.25,-0.58,-1.38,1.52
16.713,-0.58,-0.59,-1.17,1.44
16.723,-1.32,-0.51,-0.99,1.72
16.733,-1.59,-0.21,-0.80,1.79
16.743,-1.19,0.07,-0.74,1.40
16.753,-0.56,0.31,-0.68,0.93
16.763,-0.13,0.42,-0.47,0.64
16.773,0.00,0.42,-0.16,0.45
16.783,0.12,0.46,-0.03,0.47
16.793,0.39,0.52,0.08,0.66
16.803,0.76,0.42,0.16,0.89
16.813,1.01,0.08,0.29,1.05
16.823,1.04,-0.28,0.40,1.15
16.833,0.81,-0.58,0.35,1.06
16.843,0.34,-0.86,0.06,0.92
16.853,-0.23,-0.97,-0.33,1.05
16.863,-0.84,-0.94,-0.66,1.42
16.872,-1.01,-0.55,-0.90,1.46
16.882,-0.92,-0.07,-1.06,1.41
16.892,-0.89,0.25,-1.00,1.36
16.902,-0.65,0.51,-0.89,1.21
16.912,-0.41,0.64,-0.82,1.11
16.922,-0.30,0.57,-0.67,0.93
16.932,-0.30,0.41,-0.61,0.79
16.942,0.09,0.36,-1.04,1.11
16.952,0.40,0.38,-1.16,1.29
16.962,0.32,0.33,-0.96,1.06
16.972,0.22,0.31,-0.87,0.95
16.982,0.15,0.29,-0.82,0.89
16.992,0.15,0.22,-0.73,0.78
17.002,0.06,0.11,-0.52,0.53
17.012,0.04,0.04,-0.29,0.29
17.022,0.02,0.02,-0.19,0.19
17.032,0.04,0.03,-0.18,0.19
17.042,0.09,0.10,-0.24,0.27
17.052,0.21,0.27,-0.32,0.46
17.062,0.36,0.41,-0.40,0.68
17.072,0.57,0.48,-0.49,0.89
17.082,0.62,0.47,-0.61,0.99
17.092,0.68,0.41,-0.69,1.05
17.102,0.82,0.30,-0.76,1.16
17.112,0.92,0.15,-0.81,1.23
17.122,0.90,-0.04,-0.83,1.22
17.132,0.89,-0.36,-0.91,1.32
17.142,0.88,-0.71,-0.95,1.48
17.152,0.86,-1.00,-1.00,1.66
17.162,0.80,-1.14,-1.06,1.75
17.172,0.87,-1.11,-1.05,1.76
17.182,1.03,-0.85,-1.00,1.67
17.192,1.06,-0.52,-0.93,1.51
17.202,1.10,-0.31,-0.77,1.38
17.212,1.12,-0.12,-0.48,1.22
17.222,1.10,0.04,0.11,1.11
17.232,1.16,0.09,1.28,1.73
17.242,1.08,0.06,2.13,2.39
17.252,0.79,-0.01,1.93,2.08
17.262,0.57,0.01,1.13,1.27
17.272,0.43,0.04,0.28,0.52
17.281,0.37,0.02,-0.35,0.51
17.292,0.28,-0.07,-0.75,0.81
17.301,0.29,-0.13,-0.84,0.90
17.312,0.41,-0.14,-0.74,0.86
17.321,0.48,-0.11,-0.65,0.82
17.332,0.45,-0.12,-0.58,0.74
17.342,0.36,-0.13,-0.47,0.61
17.351,0.26,-0.06,-0.41,0.49
17.362,0.20,0.07,-0.33,0.39
17.371,0.07,0.18,-0.28,0.34
17.381,-0.07,0.26,-0.19,0.33
17.391,-0.23,0.29,-0.05,0.37
17.401,-0.40,0.23,0.11,0.47
17.411,-0.56,0.10,0.39,0.69
17.421,-0.69,-0.03,0.57,0.90
17.431,-0.74,-0.12,0.60,0.96
17.441,-0.69,-0.16,0.51,0.87
17.451,-0.65,-0.14,0.33,0.74
17.461,-0.53,-0.06,0.19,0.56
17.471,-0.36,0.02,0.05,0.37
17.481,-0.21,0.14,-0.05,0.26
17.491,-0.11,0.19,-0.11,0.24
17.501,-0.06,0.24,-0.12,0.27
17.511,-0.10,0.28,-0.09,0.31
17.521,-0.16,0.24,-0.06,0.30
17.531,-0.21,0.19,-0.03,0.28
17.541,-0.29,0.09,0.04,0.31
17.551,-0.30,-0.05,0.17,0.35
17.561,-0.25,-0.22,0.33,0.47
17.571,-0.17,-0.43,0.47,0.66
17.581,-0.05,-0.49,0.55,0.74
17.591,0.15,-0.42,0.47,0.65
17.601,0.34,-0.32,0.32,0.57
17.611,0.46,-0.19,0.10,0.51
17.621,0.53,-0.11,-0.07,0.54
17.631,0.59,-0.02,-0.23,0.64
17.641,0.62,0.01,-0.35,0.71
17.651,0.63,0.02,-0.42,0.75
17.661,0.65,0.01,-0.46,0.79
17.671,0.65,-0.07,-0.51,0.83
17.681,0.65,-0.29,-0.53,0.89
17.691,0.71,-0.45,-0.49,0.97
17.700,0.79,-0.47,-0.39,1.00
17.711,0.74,-0.21,-0.24,0.80
17.721,0.61,0.24,-0.04,0.66
17.731,0.29,0.48,0.10,0.57
17.741,-0.13,0.44,0.17,0.49
17.750,-0.42,0.22,0.15,0.50
17.760,-0.55,0.01,0.13,0.57
17.770,-0.54,-0.11,0.04,0.55
17.780,-0.45,-0.19,-0.05,0.49
17.790,-0.19,-0.15,-0.13,0.28
17.800,0.11,-0.06,-0.16,0.20
17.810,0.23,0.01,-0.18,0.29
17.820,0.22,0.02,-0.16,0.27
17.830,0.12,0.01,-0.14,0.19
17.840,0.05,0.07,-0.10,0.13
17.850,-0.04,0.14,-0.04,0.15
17.860,-0.16,0.18,0.02,0.25
17.870,-0.24,0.22,0.07,0.33
17.880,-0.25,0.22,0.11,0.35
17.890,-0.25,0.23,0.10,0.36
17.900,-0.23,0.23,0.09,0.34
17.910,-0.21,0.18,0.11,0.30
17.920,-0.15,0.11,0.13,0.23
17.930,-0.07,0.01,0.19,0.20
17.940,-0.02,-0.06,0.26,0.27
17.950,0.03,-0.10,0.33,0.35
17.960,0.04,-0.07,0.33,0.34
17.970,0.03,-0.04,0.29,0.30
17.980,0.01,-0.00,0.21,0.21
17.990,-0.02,0.03,0.11,0.11
18.000,-0.06,0.05,0.01,0.08
18.010,-0.07,0.04,-0.05,0.09
18.020,-0.07,0.03,-0.04,0.09
18.030,-0.08,0.00,-0.00,0.08
18.040,-0.04,-0.01,0.04,0.06
18.050,-0.02,-0.04,0.10,0.11
18.060,0.03,-0.05,0.15,0.16
18.070,0.04,-0.04,0.16,0.17
18.080,0.02,-0.04,0.14,0.14
18.090,-0.00,-0.04,0.12,0.13
18.100,-0.03,-0.01,0.09,0.09
18.110,-0.04,0.02,0.02,0.05
18.120,-0.05,0.04,-0.04,0.08
18.130,-0.06,0.05,-0.09,0.12
18.140,-0.08,0.05,-0.09,0.13
18.150,-0.07,0.02,-0.07,0.10
18.160,-0.06,-0.00,-0.01,0.07
18.170,-0.05,-0.00,0.05,0.07
18.179,-0.01,-0.01,0.08,0.08
18.190,0.04,0.00,0.08,0.09
18.200,0.06,-0.03,0.05,0.09
18.210,0.12,-0.06,0.04,0.14
18.219,0.19,-0.09,0.03,0.22
18.230,0.25,-0.13,0.05,0.29
18.239,0.33,-0.16,0.06,0.37
18.250,0.40,-0.17,0.06,0.44
18.259,0.41,-0.16,0.05,0.44
18.269,0.42,-0.17,0.06,0.45
18.279,0.38,-0.14,0.06,0.41
18.289,0.32,-0.14,0.05,0.35
18.299,0.24,-0.14,0.01,0.28
18.309,0.19,-0.09,-0.02,0.21
18.319,0.13,-0.05,-0.06,0.15
18.329,0.14,0.03,-0.12,0.18
18.339,0.13,0.08,-0.17,0.23
18.349,0.10,0.11,-0.22,0.26
18.359,0.07,0.10,-0.24,0.27
18.369,0.01,0.09,-0.19,0.22
18.379,-0.05,0.07,-0.11,0.14
18.389,-0.10,0.05,-0.05,0.12
18.399,-0.15,0.05,0.02,0.15
18.409,-0.15,0.06,0.03,0.16
18.419,-0.17,0.05,0.06,0.19
18.429,-0.17,0.04,0.05,0.18
18.439,-0.15,0.07,0.04,0.17
18.449,-0.16,0.06,0.03,0.17
18.459,-0.18,0.06,0.06,0.20
18.469,-0.22,0.04,0.08,0.23
18.479,-0.22,0.02,0.09,0.24
18.489,-0.18,-0.02,0.11,0.22
18.499,-0.15,-0.04,0.15,0.21
18.509,-0.08,-0.01,0.13,0.16
18.519,-0.02,0.01,0.11,0.12
18.529,0.06,0.03,0.09,0.11
18.539,0.09,0.02,0.03,0.10
18.549,0.15,-0.01,-0.03,0.15
18.559,0.20,-0.04,-0.08,0.22
18.569,0.23,-0.06,-0.14,0.28
18.579,0.24,-0.09,-0.17,0.31
18.589,0.24,-0.09,-0.19,0.32
18.599,0.25,-0.09,-0.20,0.33
18.609,0.27,-0.06,-0.20,0.34
18.619,0.29,-0.04,-0.20,0.36
18.629,0.30,-0.02,-0.20,0.36
18.639,0.30,-0.02,-0.22,0.37
18.649,0.32,-0.02,-0.28,0.43
18.659,0.32,-0.02,-0.34,0.47
18.669,0.32,-0.04,-0.37,0.49
18.678,0.31,-0.01,-0.39,0.50
18.688,0.28,-0.00,-0.35,0.45
18.698,0.26,0.00,-0.32,0.41
18.708,0.21,0.02,-0.25,0.33
18.718,0.18,0.02,-0.18,0.25
18.729,0.13,-0.00,-0.11,0.17
18.738,0.10,0.02,-0.08,0.14
18.748,0.06,0.03,-0.06,0.09
18.758,0.02,0.02,-0.07,0.07
18.768,0.01,0.02,-0.08,0.09
18.778,-0.01,0.02,-0.07,0.07
18.788,-0.01,0.01,-0.08,0.08
18.798,-0.01,0.02,-0.10,0.10
18.808,0.02,0.02,-0.10,0.10
18.818,0.05,0.02,-0.10,0.11
18.828,0.06,0.04,-0.10,0.12
18.838,0.05,0.04,-0.09,0.11
18.848,0.05,0.03,-0.06,0.09
18.858,-0.00,0.06,-0.03,0.07
18.868,-0.01,0.06,0.01,0.06
18.878,-0.01,0.07,0.02,0.07
18.888,-0.03,0.06,0.03,0.07
18.898,-0.06,0.02,0.08,0.10
18.908,-0.04,-0.03,0.09,0.10
18.918,-0.01,-0.04,0.13,0.14
18.928,0.01,-0.06,0.15,0.16
18.938,-0.02,-0.05,0.14,0.15
18.948,0.00,-0.04,0.14,0.14
18.958,0.03,-0.07,0.10,0.13
18.968,0.03,-0.06,0.05,0.09
18.978,0.04,-0.03,0.05,0.07
18.988,0.07,-0.01,0.05,0.09
18.998,0.06,0.01,0.01,0.06
19.008,0.04,0.03,0.02,0.05
19.018,0.02,0.04,0.02,0.05
19.028,-0.03,0.04,0.03,0.06
19.038,-0.06,0.06,0.02,0.09
19.048,-0.08,0.07,-0.01,0.11
19.058,-0.11,0.08,-0.03,0.14
19.068,-0.15,0.07,-0.02,0.17
19.078,-0.17,0.09,-0.02,0.20
19.088,-0.18,0.13,0.00,0.22
19.097,-0.16,0.13,0.01,0.21
19.108,-0.20,0.08,0.05,0.22
19.117,-0.20,0.03,0.06,0.21
19.128,-0.16,0.02,0.06,0.17
19.137,-0.10,0.02,0.07,0.12
19.147,-0.04,0.04,0.07,0.10
19.157,-0.01,0.03,0.06,0.07
19.167,0.02,0.04,0.03,0.05
19.177,0.03,0.04,0.02,0.06
19.187,0.02,0.02,0.02,0.03
19.197,0.02,0.02,0.05,0.05
19.207,0.01,0.00,0.07,0.07
19.217,-0.01,-0.01,0.09,0.09
19.227,0.01,-0.02,0.10,0.10
19.237,0.04,-0.05,0.08,0.10
19.247,0.07,-0.06,0.06,0.11
19.257,0.10,-0.06,0.03,0.12
19.267,0.07,-0.02,-0.02,0.08
19.277,0.03,0.00,-0.08,0.09
19.287,-0.03,0.02,-0.11,0.12
19.297,-0.08,0.06,-0.09,0.13
19.307,-0.12,0.09,-0.03,0.16
19.317,-0.14,0.12,0.02,0.19
19.327,-0.15,0.12,0.04,0.19
19.337,-0.13,0.09,0.03,0.16
19.347,-0.08,0.07,0.00,0.11
19.357,-0.04,0.02,-0.02,0.05
19.367,0.03,-0.00,-0.03,0.04
19.377,0.04,-0.01,-0.05,0.07
19.387,0.03,0.01,-0.04,0.05
19.397,-0.02,0.02,-0.03,0.04
19.407,-0.05,0.03,-0.04,0.07
19.417,-0.07,0.01,-0.03,0.08
19.427,-0.08,0.01,-0.05,0.09
19.437,-0.08,0.03,-0.04,0.10
19.447,-0.07,0.04,-0.05,0.09
19.457,-0.06,0.04,-0.03,0.08
19.467,-0.04,0.02,-0.03,0.06
19.477,-0.02,0.01,-0.04,0.05
19.487,-0.02,0.00,-0.03,0.04
19.497,-0.03,0.02,-0.02,0.04
19.507,-0.04,0.02,0.00,0.05
19.516,-0.05,0.04,0.02,0.07
19.527,-0.04,0.04,0.01,0.06
19.537,-0.04,0.03,0.00,0.05
19.546,-0.03,0.03,-0.04,0.05
19.557,0.00,0.01,-0.07,0.08
19.567,0.04,-0.00,-0.11,0.11
19.576,0.07,-0.03,-0.13,0.15
19.586,0.09,-0.05,-0.13,0.17
19.596,0.13,-0.03,-0.12,0.18
19.606,0.15,-0.03,-0.10,0.18
19.616,0.15,0.01,-0.05,0.16
19.627,0.12,0.02,-0.03,0.12
19.636,0.07,0.03,-0.02,0.08
19.646,0.05,0.03,-0.00,0.06
19.656,0.02,0.01,-0.03,0.04
19.666,0.01,-0.03,-0.06,0.07
19.676,0.02,-0.03,-0.06,0.07
19.686,0.04,0.01,-0.06,0.07
19.696,0.07,0.01,-0.04,0.09
19.706,0.09,0.01,-0.05,0.11
19.716,0.10,0.01,-0.03,0.10
19.726,0.07,0.05,-0.01,0.09
19.736,0.02,0.05,-0.01,0.06
19.746,-0.05,0.01,-0.01,0.05
19.756,-0.09,-0.03,-0.01,0.10
19.766,-0.09,-0.04,0.02,0.10
19.776,-0.07,-0.02,0.03,0.08
19.786,-0.04,0.02,0.05,0.07
19.796,-0.01,0.04,0.08,0.09
19.806,0.02,0.03,0.07,0.08
19.816,0.06,-0.01,0.06,0.08
19.826,0.06,-0.05,0.03,0.09
19.836,0.09,-0.09,-0.01,0.13
19.846,0.10,-0.10,-0.04,0.15
19.856,0.11,-0.08,-0.03,0.14
19.866,0.11,-0.03,-0.01,0.12
19.876,0.11,0.02,0.00,0.11
19.886,0.08,0.05,-0.02,0.09
19.896,0.06,0.08,-0.00,0.10
19.906,0.02,0.12,-0.01,0.12
19.916,-0.03,0.16,-0.02,0.17
19.926,-0.08,0.16,-0.01,0.18
19.936,-0.13,0.12,0.00,0.18
19.946,-0.12,0.06,-0.01,0.13
19.956,-0.07,0.02,-0.03,0.08
19.966,-0.03,0.01,-0.05,0.06
19.976,-0.01,0.05,-0.05,0.07
19.986,-0.04,0.09,-0.06,0.12
19.996,-0.09,0.11,-0.02,0.15
20.005,-0.14,0.13,-0.01,0.19
20.016,-0.17,0.12,-0.01,0.21
20.026,-0.21,0.08,-0.01,0.22
20.036,-0.21,0.05,0.01,0.22
20.046,-0.19,0.03,0.04,0.20
20.055,-0.16,0.01,0.06,0.17
20.066,-0.13,-0.00,0.08,0.15
20.075,-0.09,0.00,0.10,0.13
20.086,-0.03,0.01,0.09,0.10
20.095,0.03,-0.01,0.08,0.09
20.105,0.09,-0.04,0.06,0.11
20.115,0.17,-0.05,0.00,0.18
20.125,0.21,-0.05,-0.04,0.22
20.135,0.23,-0.05,-0.09,0.25
20.145,0.25,-0.03,-0.15,0.30
20.155,0.26,-0.01,-0.20,0.33
20.165,0.26,-0.02,-0.17,0.32
20.175,0.26,-0.05,-0.16,0.31
20.185,0.25,-0.09,-0.12,0.29
20.195,0.24,-0.12,-0.13,0.30
20.205,0.20,-0.09,-0.12,0.25
20.215,0.13,-0.02,-0.07,0.15
20.225,0.02,0.08,-0.02,0.08
20.235,-0.11,0.16,0.04,0.20
20.245,-0.20,0.20,0.11,0.31
20.255,-0.28,0.21,0.15,0.38
20.265,-0.31,0.16,0.19,0.40
20.275,-0.30,0.08,0.20,0.38
20.285,-0.27,0.03,0.20,0.34
20.295,-0.22,-0.00,0.21,0.30
20.305,-0.11,0.01,0.22,0.24
20.315,0.01,0.01,0.19,0.19
20.325,0.12,-0.02,0.12,0.17
20.335,0.21,-0.04,-0.02,0.22
20.345,0.29,-0.06,-0.14,0.32
20.355,0.31,-0.03,-0.24,0.40
20.365,0.28,-0.06,-0.32,0.43
20.375,0.24,-0.07,-0.36,0.44
20.385,0.19,-0.05,-0.32,0.37
20.395,0.09,0.02,-0.21,0.23
20.405,-0.02,0.08,-0.06,0.10
20.415,-0.11,0.10,0.13,0.19
20.425,-0.18,0.09,0.29,0.35
20.434,-0.20,0.04,0.40,0.45
20.445,-0.17,-0.01,0.40,0.44
20.454,-0.11,-0.04,0.35,0.37
20.465,-0.01,-0.05,0.21,0.21
20.474,0.09,-0.03,0.07,0.12
20.484,0.17,-0.03,-0.06,0.19
20.494,0.24,-0.03,-0.14,0.28
20.504,0.27,-0.04,-0.20,0.34
20.514,0.27,-0.05,-0.22,0.35
20.524,0.26,-0.05,-0.22,0.35
20.534,0.21,-0.02,-0.18,0.27
20.544,0.14,0.01,-0.11,0.18
20.554,0.06,0.04,-0.04,0.08
20.564,-0.04,0.05,0.03,0.07
20.574,-0.11,0.03,0.12,0.16
20.584,-0.15,0.03,0.18,0.23
20.594,-0.16,0.02,0.19,0.26
20.604,-0.16,0.02,0.18,0.24
20.614,-0.17,0.03,0.13,0.21
20.624,-0.15,0.02,0.07,0.17
20.634,-0.13,0.03,-0.01,0.14
20.644,-0.11,0.01,-0.04,0.12
20.654,-0.07,0.03,-0.04,0.09
20.664,-0.04,0.04,0.00,0.05
20.674,-0.01,0.04,0.02,0.05
20.684,-0.00,0.03,0.03,0.04
20.694,0.01,0.03,0.00,0.03
20.704,0.03,0.00,-0.03,0.04
20.714,0.05,-0.02,-0.03,0.06
20.724,0.06,-0.01,-0.02,0.07
20.734,0.09,-0.00,0.01,0.09
20.744,0.08,-0.01,0.03,0.09
20.754,0.08,-0.01,0.06,0.10
20.764,0.07,-0.01,0.08,0.11
20.774,0.07,-0.02,0.07,0.10
20.784,0.09,-0.04,0.02,0.10
20.794,0.09,-0.04,0.00,0.10
20.804,0.11,-0.03,-0.05,0.12
20.814,0.12,-0.00,-0.08,0.15
20.824,0.13,0.01,-0.09,0.15
20.834,0.14,0.02,-0.06,0.15
20.844,0.13,0.02,-0.02,0.13
20.854,0.15,0.01,-0.01,0.15
20.864,0.15,-0.01,0.02,0.15
20.874,0.15,-0.04,0.04,0.16
20.884,0.13,-0.05,0.07,0.16
20.894,0.12,-0.05,0.10,0.16
20.904,0.11,-0.05,0.12,0.17
20.913,0.09,-0.03,0.08,0.13
20.923,0.07,0.00,0.05,0.08
20.933,0.05,0.04,0.00,0.06
20.943,0.01,0.05,-0.02,0.06
20.953,-0.01,0.04,-0.05,0.06
20.963,-0.02,0.03,-0.05,0.06
20.973,-0.01,0.02,-0.07,0.08
20.983,0.00,-0.01,-0.08,0.08
20.993,0.02,-0.01,-0.07,0.07
21.003,0.05,0.01,-0.08,0.09
21.013,0.04,0.02,-0.07,0.08
21.023,0.05,0.03,-0.08,0.10
21.033,0.06,0.02,-0.09,0.11
21.043,0.04,0.02,-0.07,0.08
21.053,0.04,0.01,-0.04,0.06
21.063,0.04,0.01,-0.02,0.04
21.073,0.04,0.01,-0.00,0.04
21.083,0.05,0.00,0.01,0.05
21.093,0.03,-0.01,0.03,0.05
21.103,0.02,-0.01,0.05,0.05
21.113,0.01,-0.01,0.05,0.05
21.123,0.01,-0.01,0.04,0.05
21.133,0.00,0.02,0.04,0.04
21.143,0.04,0.02,0.01,0.04
21.153,0.06,0.04,-0.00,0.08
21.163,0.07,0.06,-0.04,0.10
21.173,0.07,0.03,-0.08,0.11
21.183,0.10,0.01,-0.09,0.13
21.193,0.10,-0.00,-0.09,0.14
21.203,0.10,-0.01,-0.10,0.14
21.213,0.09,-0.01,-0.12,0.15
21.223,0.05,-0.01,-0.10,0.11
21.233,0.01,-0.01,-0.07,0.07
21.243,-0.02,0.01,-0.05,0.05
21.253,-0.03,0.02,-0.02,0.04
21.263,-0.05,0.04,0.01,0.07
21.273,-0.06,0.06,0.04,0.09
21.283,-0.06,0.06,0.05,0.10
21.293,-0.06,0.06,0.07,0.11
21.303,-0.07,0.05,0.06,0.11
21.313,-0.06,0.04,0.04,0.08
21.323,-0.06,0.01,0.01,0.06
21.333,-0.04,0.02,-0.01,0.04
21.343,-0.01,0.02,-0.04,0.05
21.353,-0.00,0.02,-0.05,0.05
21.363,0.01,0.01,-0.06,0.06
21.372,0.02,0.02,-0.06,0.07
21.383,0.03,0.02,-0.08,0.09
21.392,0.03,0.03,-0.06,0.07
21.402,0.02,0.03,-0.03,0.04
21.412,0.01,0.03,0.01,0.03
21.422,-0.01,0.04,0.04,0.06
21.432,-0.01,0.02,0.05,0.05
21.442,0.02,-0.00,0.06,0.06
21.452,0.02,-0.02,0.08,0.08
21.462,0.05,-0.04,0.06,0.09
21.472,0.05,-0.03,0.06,0.09
21.482,0.05,-0.03,0.06,0.09
21.492,0.06,-0.02,0.05,0.08
21.502,0.06,-0.02,0.04,0.08
21.512,0.07,-0.00,0.01,0.07
21.522,0.05,0.00,-0.00,0.05
21.532,0.04,0.00,-0.00,0.04
21.542,0.04,-0.01,0.00,0.04
21.552,0.04,-0.01,0.00,0.04
21.562,0.05,-0.01,0.02,0.06
21.572,0.05,0.00,0.02,0.05
21.582,0.05,0.02,0.02,0.06
21.592,0.04,0.02,0.02,0.05
21.602,0.04,0.03,-0.01,0.05
21.612,0.02,0.02,-0.02,0.04
21.622,0.02,0.02,-0.05,0.06
21.632,0.03,0.01,-0.08,0.08
21.642,0.04,-0.00,-0.11,0.12
21.652,0.05,0.02,-0.11,0.12
21.662,0.04,0.03,-0.12,0.13
21.672,0.05,0.04,-0.10,0.12
21.682,0.03,0.06,-0.09,0.11
21.692,0.00,0.05,-0.06,0.08
21.702,-0.01,0.01,-0.04,0.04
21.712,-0.05,-0.02,-0.02,0.06
21.722,-0.07,-0.06,0.02,0.09
21.732,-0.06,-0.09,0.05,0.12
21.742,-0.04,-0.07,0.04,0.09
21.752,-0.00,-0.04,0.04,0.06
21.762,0.03,-0.02,0.06,0.07
21.772,0.06,0.01,0.06,0.09
21.782,0.08,0.02,0.08,0.11
21.792,0.08,0.03,0.10,0.13
21.802,0.08,0.03,0.09,0.13
21.811,0.08,0.00,0.09,0.11
21.821,0.05,-0.06,0.07,0.11
21.832,0.08,-0.10,0.04,0.13
21.841,0.09,-0.09,0.00,0.13
21.851,0.14,-0.05,-0.01,0.15
21.862,0.17,0.01,-0.03,0.18
21.871,0.20,0.04,-0.05,0.21
21.881,0.16,0.07,-0.06,0.19
21.891,0.08,0.08,-0.05,0.13
21.901,-0.03,0.07,-0.03,0.08
21.911,-0.13,0.08,-0.06,0.16
21.921,-0.20,0.09,-0.08,0.24
21.931,-0.26,0.12,-0.10,0.30
21.941,-0.30,0.13,-0.09,0.33
21.951,-0.32,0.15,-0.07,0.36
21.961,-0.31,0.13,-0.06,0.34
21.971,-0.30,0.09,-0.07,0.32
21.981,-0.26,0.09,-0.09,0.29
21.991,-0.20,0.09,-0.13,0.26
22.001,-0.16,0.09,-0.17,0.25
22.011,-0.09,0.10,-0.22,0.26
22.021,-0.06,0.09,-0.27,0.29
22.031,-0.02,0.06,-0.30,0.30
22.041,-0.01,0.05,-0.28,0.28
22.051,-0.01,0.04,-0.21,0.22
22.061,-0.01,0.03,-0.15,0.16
22.071,-0.01,0.04,-0.04,0.06
22.081,-0.02,0.07,0.06,0.09
22.091,-0.05,0.06,0.19,0.20
22.101,-0.06,0.06,0.31,0.32
22.111,-0.07,0.04,0.38,0.39
22.121,-0.09,0.01,0.42,0.43
22.131,-0.08,-0.04,0.45,0.46
22.141,-0.09,-0.06,0.44,0.45
22.151,-0.06,-0.08,0.38,0.40
22.161,-0.02,-0.07,0.33,0.34
22.171,0.01,-0.06,0.26,0.27
22.181,0.05,-0.05,0.18,0.19
22.191,0.09,-0.04,0.09,0.13
22.201,0.12,-0.02,0.00,0.12
22.211,0.15,-0.00,-0.07,0.17
22.221,0.18,-0.02,-0.13,0.22
22.231,0.17,-0.00,-0.16,0.24
22.241,0.17,0.00,-0.16,0.24
22.250,0.15,0.00,-0.14,0.21
22.261,0.12,0.04,-0.12,0.17
22.270,0.06,0.03,-0.10,0.12
22.280,0.01,0.02,-0.08,0.08
22.291,0.00,0.02,-0.08,0.09
22.300,-0.01,0.02,-0.08,0.08
22.310,-0.02,0.00,-0.06,0.07
22.320,-0.03,0.00,-0.06,0.07
22.330,-0.02,-0.00,-0.04,0.05
22.340,-0.02,-0.01,-0.03,0.03
22.350,0.00,-0.01,-0.03,0.03
22.360,0.03,-0.01,-0.04,0.05
22.370,0.05,-0.00,-0.03,0.06
22.380,0.06,-0.02,-0.03,0.07
22.390,0.09,-0.01,-0.04,0.10
22.400,0.12,-0.01,0.00,0.12
22.410,0.15,0.01,0.01,0.15
22.420,0.16,0.01,-0.01,0.16
22.430,0.18,-0.03,-0.01,0.19
22.440,0.18,-0.06,-0.03,0.20
22.450,0.19,-0.06,-0.04,0.20
22.460,0.19,-0.04,-0.06,0.20
22.470,0.18,-0.02,-0.05,0.19
22.480,0.15,0.02,-0.04,0.16
22.490,0.11,0.01,-0.02,0.11
22.500,0.06,0.00,0.02,0.06
22.510,0.03,-0.01,0.04,0.05
22.520,-0.01,-0.00,0.04,0.04
22.530,-0.03,0.00,0.04,0.05
22.540,-0.03,0.04,0.01,0.05
22.550,-0.04,0.04,-0.04,0.06
22.560,-0.02,0.04,-0.06,0.08
22.570,0.01,0.02,-0.08,0.08
22.580,0.05,-0.01,-0.09,0.10
22.590,0.07,-0.01,-0.10,0.13
22.600,0.11,-0.00,-0.14,0.18
22.610,0.14,0.00,-0.14,0.19
22.620,0.17,-0.01,-0.13,0.21
22.630,0.16,-0.03,-0.12,0.21
22.640,0.17,-0.03,-0.11,0.20
22.650,0.14,-0.01,-0.08,0.17
22.660,0.12,0.01,-0.05,0.13
22.670,0.09,0.05,-0.03,0.11
22.680,0.05,0.05,-0.00,0.07
22.689,-0.00,0.06,0.05,0.07
22.699,-0.03,0.05,0.06,0.08
22.710,-0.08,0.05,0.05,0.11
22.719,-0.10,0.07,0.04,0.13
22.729,-0.13,0.08,0.04,0.16
22.739,-0.17,0.08,0.05,0.19
22.749,-0.19,0.09,0.05,0.21
22.759,-0.21,0.08,0.05,0.23
22.769,-0.23,0.08,0.05,0.25
22.779,-0.24,0.08,0.04,0.26
22.789,-0.24,0.08,0.04,0.25
22.799,-0.21,0.08,0.05,0.23
22.809,-0.19,0.06,0.03,0.20
22.819,-0.15,0.05,0.06,0.17
22.829,-0.10,0.02,0.05,0.12
22.839,-0.08,0.01,0.06,0.09
22.849,-0.06,0.02,0.07,0.09
22.859,-0.04,0.03,0.06,0.08
22.869,-0.01,0.02,0.06,0.06
22.879,0.03,0.02,0.02,0.04
22.889,0.06,0.03,-0.02,0.07
22.899,0.08,0.04,-0.05,0.10
22.909,0.08,0.04,-0.06,0.10
22.919,0.09,0.02,-0.05,0.11
22.929,0.10,0.01,-0.03,0.11
22.939,0.11,-0.00,-0.03,0.11
22.949,0.11,-0.02,-0.03,0.11
22.959,0.11,-0.01,-0.02,0.11
22.969,0.08,0.01,-0.03,0.09
22.979,0.05,0.03,-0.02,0.07
22.989,0.00,0.06,-0.02,0.06
22.999,-0.05,0.04,-0.00,0.06
23.009,-0.08,0.02,0.01,0.08
23.019,-0.11,0.01,0.05,0.12
23.029,-0.11,0.01,0.07,0.13
23.039,-0.08,0.03,0.09,0.12
23.049,-0.08,0.04,0.08,0.12
23.059,-0.05,0.05,0.07,0.09
23.069,-0.03,0.04,0.05,0.07
23.079,-0.03,0.02,0.02,0.04
23.089,-0.04,0.01,-0.01,0.04
23.099,-0.03,-0.01,-0.03,0.04
23.109,-0.01,-0.01,-0.03,0.03
23.119,0.03,0.00,-0.06,0.07
23.129,0.07,0.01,-0.08,0.11
23.139,0.12,0.00,-0.06,0.13
23.148,0.14,-0.02,-0.06,0.16
23.159,0.15,-0.01,-0.04,0.16
23.168,0.15,-0.00,-0.02,0.15
23.178,0.15,-0.01,-0.00,0.15
23.189,0.13,-0.02,-0.01,0.13
23.198,0.12,-0.01,-0.02,0.12
23.208,0.11,0.01,-0.01,0.11
23.218,0.08,0.02,-0.02,0.08
23.228,0.07,0.00,-0.01,0.07
23.238,0.04,0.00,-0.01,0.04
23.248,0.01,0.01,0.00,0.01
23.258,-0.02,-0.01,0.01,0.02
23.268,-0.02,0.00,0.01,0.02
23.278,-0.01,0.01,0.02,0.03
23.288,-0.02,0.01,-0.01,0.02
23.298,-0.00,0.04,-0.03,0.05
23.308,0.00,0.02,-0.05,0.05
23.318,0.01,0.04,-0.06,0.07
23.328,0.02,0.02,-0.06,0.06
23.338,0.01,-0.00,-0.04,0.04
23.348,0.02,-0.01,-0.00,0.02
23.358,0.01,-0.01,0.05,0.05
23.368,-0.00,0.01,0.09,0.09
23.378,0.00,0.00,0.11,0.11
23.388,-0.00,-0.01,0.12,0.12
23.398,0.00,-0.01,0.08,0.08
23.408,-0.01,0.00,0.04,0.05
23.418,-0.02,0.01,0.00,0.02
23.428,-0.01,0.01,-0.01,0.02
23.438,0.02,0.01,-0.02,0.04
23.448,0.03,0.01,-0.04,0.05
23.458,0.04,0.00,-0.06,0.07
23.468,0.05,0.01,-0.07,0.08
23.478,0.05,0.01,-0.07,0.09
23.488,0.03,0.01,-0.08,0.09
23.498,0.01,0.01,-0.08,0.08
23.508,0.00,0.01,-0.07,0.07
23.518,-0.02,0.04,-0.05,0.06
23.528,-0.05,0.05,-0.03,0.07
23.538,-0.05,0.05,-0.00,0.07
23.548,-0.04,0.03,0.00,0.05
23.558,-0.03,0.01,0.01,0.04
23.568,-0.01,0.01,0.01,0.01
23.578,0.00,0.00,-0.01,0.01
23.588,0.02,-0.01,-0.01,0.03
23.598,0.02,-0.02,-0.02,0.04
23.607,0.02,-0.00,-0.01,0.02
23.617,0.01,0.02,-0.02,0.03
23.627,0.02,0.02,-0.03,0.04
23.637,0.00,0.03,-0.01,0.03
23.647,-0.01,0.03,-0.01,0.03
23.658,-0.02,0.01,-0.01,0.03
23.667,-0.02,0.03,-0.00,0.04
23.677,-0.02,0.05,0.01,0.06
23.687,-0.02,0.05,0.01,0.06
23.697,-0.02,0.06,0.01,0.06
23.707,-0.04,0.04,0.01,0.06
23.717,-0.04,0.03,0.01,0.05
23.727,-0.05,0.01,0.00,0.05
23.737,-0.05,0.00,0.00,0.05
23.747,-0.04,0.02,-0.00,0.04
23.757,-0.03,0.03,-0.01,0.04
23.767,-0.02,0.05,0.01,0.05
23.777,-0.01,0.04,0.02,0.04
23.787,-0.01,0.04,0.01,0.05
23.797,0.00,0.03,0.02,0.04
23.807,0.03,0.03,0.00,0.04
23.817,0.03,0.03,0.00,0.05
23.827,0.01,0.04,0.01,0.04
23.837,-0.00,0.04,0.04,0.06
23.847,-0.01,0.04,0.03,0.05
23.857,-0.01,0.01,0.05,0.05
23.867,-0.00,-0.01,0.05,0.05
23.877,0.01,-0.02,0.04,0.05
23.887,0.03,-0.03,0.03,0.06
23.897,0.05,-0.02,0.04,0.07
23.907,0.07,-0.01,0.04,0.08
23.917,0.09,-0.01,0.01,0.09
23.927,0.09,-0.01,-0.01,0.09
23.937,0.09,-0.01,-0.03,0.10
23.947,0.10,0.00,-0.03,0.10
23.957,0.09,0.01,-0.05,0.10
23.967,0.10,0.00,-0.07,0.12
23.977,0.08,0.01,-0.07,0.10
23.987,0.08,0.01,-0.07,0.11
23.997,0.07,0.01,-0.05,0.08
24.007,0.07,0.00,-0.04,0.08
24.017,0.06,-0.01,-0.02,0.06
24.027,0.06,-0.01,-0.02,0.06
24.037,0.08,-0.03,-0.00,0.08
24.047,0.07,-0.00,0.00,0.07
24.057,0.04,0.01,0.03,0.05
24.067,0.02,0.01,0.04,0.04
24.077,0.00,-0.00,0.03,0.03
24.086,-0.01,0.02,0.03,0.04
24.096,-0.02,0.01,0.05,0.05
24.106,-0.03,0.02,0.03,0.05
24.117,-0.01,0.02,0.03,0.04
24.126,-0.02,0.03,0.02,0.04
24.136,0.00,0.01,0.00,0.02
24.146,0.01,0.02,-0.03,0.04
24.156,0.03,0.02,-0.04,0.05
24.166,0.04,0.00,-0.03,0.06
24.176,0.07,0.01,-0.04,0.08
24.186,0.08,0.01,-0.05,0.10
24.196,0.10,0.00,-0.05,0.11
24.206,0.10,0.01,-0.04,0.11
24.216,0.09,-0.01,-0.04,0.10
24.226,0.07,0.01,-0.05,0.09
24.236,0.07,0.01,-0.05,0.09
24.246,0.04,0.01,-0.05,0.06
24.256,0.02,0.01,-0.04,0.04
24.266,-0.02,0.01,-0.02,0.03
24.276,-0.05,0.01,-0.01,0.05
24.286,-0.08,-0.01,0.00,0.08
24.296,-0.10,0.04,0.02,0.10
24.306,-0.11,0.07,0.02,0.14
24.316,-0.13,0.10,0.02,0.16
24.326,-0.13,0.13,0.01,0.19
24.336,-0.14,0.13,0.01,0.19
24.346,-0.12,0.08,0.00,0.15
24.356,-0.11,0.05,-0.01,0.12
24.366,-0.07,0.01,-0.02,0.07
24.376,-0.04,0.00,-0.02,0.05
24.386,-0.00,-0.01,-0.05,0.05
24.396,0.04,0.01,-0.06,0.07
24.406,0.04,0.02,-0.02,0.05
24.416,0.04,0.05,-0.01,0.07
24.426,0.03,0.08,0.03,0.09
24.436,-0.00,0.09,0.07,0.12
24.446,-0.06,0.08,0.07,0.12
24.456,-0.11,0.05,0.08,0.14
24.466,-0.14,0.02,0.05,0.15
24.476,-0.14,-0.01,0.03,0.14
24.486,-0.12,-0.02,0.02,0.12
24.496,-0.07,-0.01,-0.02,0.07
24.505,0.00,0.01,-0.03,0.03
24.516,0.07,0.02,-0.04,0.09
24.526,0.12,-0.00,-0.07,0.13
24.535,0.16,-0.05,-0.11,0.20
24.546,0.21,-0.08,-0.15,0.27
24.555,0.27,-0.10,-0.18,0.34
24.565,0.33,-0.09,-0.21,0.40
24.575,0.38,-0.07,-0.21,0.44
24.585,0.39,-0.06,-0.19,0.44
24.595,0.40,-0.05,-0.16,0.44
24.605,0.39,-0.06,-0.12,0.42
24.615,0.36,-0.07,-0.08,0.37
24.625,0.31,-0.08,-0.06,0.32
24.635,0.23,-0.06,-0.04,0.24
24.645,0.17,-0.04,-0.04,0.18
24.655,0.11,-0.03,-0.00,0.11
24.665,0.06,-0.00,-0.00,0.06
24.675,-0.01,0.03,-0.00,0.03
24.685,-0.04,0.05,0.02,0.07
24.695,-0.09,0.07,0.02,0.12
24.705,-0.10,0.07,0.03,0.13
24.715,-0.13,0.08,0.04,0.16
24.725,-0.16,0.04,0.08,0.19
24.735,-0.17,0.02,0.11,0.20
24.745,-0.16,0.02,0.14,0.22
24.755,-0.14,0.01,0.16,0.22
24.765,-0.11,0.00,0.14,0.18
24.775,-0.07,0.01,0.10,0.12
24.785,-0.04,0.03,0.07,0.08
24.795,-0.02,0.04,0.04,0.06
24.805,0.01,0.06,0.03,0.07
24.815,0.02,0.07,0.01,0.07
24.825,0.01,0.06,-0.00,0.06
24.835,-0.00,0.04,0.00,0.04
24.845,-0.01,0.02,0.01,0.03
24.855,-0.03,0.03,0.01,0.04
24.865,-0.06,0.04,0.02,0.07
24.875,-0.06,0.04,0.03,0.08
24.885,-0.07,0.05,0.02,0.08
24.895,-0.09,0.03,0.04,0.10
24.905,-0.10,-0.00,0.03,0.10
24.915,-0.09,-0.00,0.03,0.10
24.925,-0.09,0.01,0.01,0.09
24.935,-0.09,0.03,0.00,0.10
24.945,-0.06,0.05,-0.01,0.08
24.955,-0.05,0.06,-0.00,0.08
24.964,-0.04,0.05,-0.00,0.06
24.974,-0.05,0.03,0.01,0.06
24.984,-0.04,0.03,0.03,0.06
24.994,-0.04,0.01,0.04,0.06
25.004,-0.07,0.01,0.06,0.09
25.014,-0.06,0.03,0.07,0.09
25.024,-0.05,0.03,0.06,0.08
25.034,-0.04,0.03,0.04,0.07
25.044,-0.04,0.02,0.04,0.06
25.054,-0.05,0.04,0.06,0.09
25.064,-0.06,0.06,0.06,0.10
25.074,-0.08,0.06,0.06,0.11
25.084,-0.11,0.05,0.05,0.13
25.094,-0.11,0.06,0.05,0.14
25.104,-0.13,0.07,0.03,0.15
25.114,-0.13,0.08,0.01,0.15
25.124,-0.11,0.08,-0.01,0.14
25.134,-0.09,0.08,-0.01,0.12
25.144,-0.09,0.08,-0.01,0.12
25.154,-0.08,0.08,-0.01,0.12
25.164,-0.06,0.07,-0.01,0.09
25.174,-0.06,0.04,-0.02,0.07
25.184,-0.06,0.02,0.00,0.06
25.194,-0.03,0.01,0.01,0.04
25.204,-0.02,-0.01,0.04,0.05
25.214,-0.01,-0.04,0.07,0.08
25.224,-0.01,-0.02,0.09,0.09
25.234,-0.02,-0.00,0.10,0.10
25.244,-0.02,0.01,0.08,0.09
25.254,-0.03,0.01,0.04,0.05
25.264,-0.03,0.02,-0.01,0.03
25.274,-0.00,0.01,-0.05,0.06
25.284,0.02,0.02,-0.09,0.10
25.294,0.06,0.03,-0.10,0.12
25.304,0.11,0.04,-0.11,0.16
25.314,0.15,0.01,-0.09,0.18
25.324,0.16,0.00,-0.11,0.20
25.334,0.19,-0.02,-0.10,0.22
25.344,0.20,-0.03,-0.10,0.22
25.354,0.17,-0.06,-0.09,0.20
25.364,0.17,-0.07,-0.07,0.19
25.374,0.16,-0.07,-0.06,0.19
25.383,0.14,-0.05,-0.03,0.15
25.394,0.09,-0.03,-0.02,0.10
25.403,0.06,0.00,0.01,0.06
25.414,0.05,-0.01,-0.02,0.06
25.423,0.03,0.01,-0.01,0.03
25.433,0.02,0.02,-0.02,0.03
25.443,0.00,0.01,-0.02,0.02
25.454,-0.01,0.03,-0.06,0.06
25.463,-0.01,0.03,-0.08,0.09
25.474,-0.03,0.03,-0.09,0.10
25.483,-0.03,0.06,-0.09,0.11
25.493,-0.04,0.06,-0.07,0.10
25.503,-0.05,0.06,-0.05,0.10
25.513,-0.07,0.07,-0.02,0.10
25.523,-0.10,0.03,0.01,0.10
25.533,-0.14,0.02,0.02,0.15
25.543,-0.17,0.04,0.04,0.18
25.553,-0.17,0.06,0.04,0.18
25.563,-0.17,0.08,0.06,0.19
25.573,-0.16,0.11,0.06,0.20
25.583,-0.16,0.10,0.07,0.21
25.593,-0.15,0.07,0.05,0.17
25.603,-0.13,0.03,0.04,0.14
25.613,-0.08,-0.01,0.04,0.09
25.623,-0.02,-0.01,0.03,0.04
25.633,0.03,0.01,0.04,0.04
25.643,0.07,0.02,0.02,0.08
25.653,0.09,0.02,0.02,0.10
25.663,0.10,0.01,-0.01,0.10
25.673,0.11,0.01,-0.01,0.12
25.683,0.12,0.01,-0.00,0.12
25.693,0.13,-0.01,-0.02,0.13
25.703,0.12,-0.02,-0.04,0.13
25.713,0.12,-0.02,-0.07,0.14
25.723,0.14,-0.01,-0.07,0.15
25.733,0.11,0.00,-0.07,0.13
25.743,0.10,-0.01,-0.06,0.12
25.753,0.08,-0.00,-0.05,0.10
25.763,0.05,-0.01,-0.06,0.08
25.773,0.04,-0.01,-0.04,0.06
25.782,0.02,-0.02,-0.02,0.03
25.793,0.03,-0.01,-0.02,0.04
25.802,0.03,-0.01,-0.03,0.04
25.813,0.03,-0.00,-0.02,0.04
25.823,0.02,0.01,-0.03,0.04
25.833,0.02,0.03,-0.02,0.04
25.842,0.03,0.01,-0.02,0.04
25.852,0.03,-0.00,0.00,0.03
25.862,0.04,0.00,-0.00,0.04
25.872,0.05,-0.00,-0.00,0.05
25.882,0.05,0.00,0.01,0.05
25.893,0.04,0.01,0.01,0.04
25.902,0.04,0.00,0.03,0.05
25.912,0.04,0.02,0.03,0.05
25.922,0.03,0.02,0.02,0.05
25.932,0.01,0.03,0.01,0.03
25.942,0.01,0.01,0.00,0.02
25.952,0.03,0.02,-0.01,0.03
25.962,0.02,0.02,-0.03,0.04
25.972,0.01,0.02,-0.04,0.05
25.982,0.02,0.03,-0.04,0.05
25.992,-0.00,0.02,-0.04,0.05
26.002,-0.02,0.02,-0.02,0.03
26.012,-0.02,0.02,-0.02,0.03
26.022,-0.01,0.01,-0.01,0.02
26.032,0.01,0.01,-0.00,0.02
26.042,0.00,0.01,-0.01,0.01
26.052,0.02,0.01,-0.00,0.02
26.062,0.04,0.01,-0.00,0.04
26.072,0.05,0.02,-0.01,0.06
26.082,0.06,0.01,0.00,0.07
26.092,0.05,0.00,-0.01,0.05
26.102,0.03,0.01,-0.02,0.04
26.112,0.02,0.01,-0.02,0.03
26.122,-0.01,0.00,-0.02,0.03
26.132,-0.02,-0.01,-0.03,0.04
26.142,-0.02,-0.03,-0.03,0.05
26.152,-0.02,-0.02,-0.03,0.04
26.162,0.01,-0.00,-0.04,0.04
26.172,0.01,0.01,-0.04,0.05
26.182,0.00,0.04,-0.04,0.06
26.192,-0.00,0.07,-0.03,0.08
26.202,-0.03,0.08,-0.05,0.10
26.212,-0.05,0.05,-0.04,0.08
26.222,-0.06,0.01,-0.03,0.06
26.232,-0.04,-0.01,-0.04,0.05
26.242,0.01,-0.02,-0.03,0.04
26.252,0.08,-0.00,-0.06,0.10
26.262,0.13,0.01,-0.06,0.15
26.272,0.18,-0.01,-0.07,0.20
26.281,0.20,-0.03,-0.08,0.22
26.292,0.22,-0.05,-0.10,0.25
26.302,0.23,-0.05,-0.11,0.26
26.312,0.22,-0.02,-0.12,0.25
26.321,0.17,-0.00,-0.13,0.22
26.331,0.11,0.01,-0.13,0.17
26.341,0.03,0.03,-0.10,0.11
26.351,-0.04,0.06,-0.09,0.12
26.361,-0.11,0.07,-0.06,0.15
26.372,-0.15,0.04,0.00,0.15
26.381,-0.15,-0.00,0.03,0.15
26.391,-0.14,-0.03,0.07,0.16
26.401,-0.13,-0.01,0.08,0.15
26.411,-0.12,0.00,0.08,0.14
26.421,-0.11,0.05,0.08,0.14
26.431,-0.09,0.09,0.06,0.15
26.441,-0.11,0.10,0.06,0.16
26.451,-0.10,0.09,0.06,0.14
26.461,-0.09,0.07,0.08,0.14
26.471,-0.07,0.04,0.09,0.12
26.481,-0.06,0.02,0.09,0.11
26.491,-0.02,0.04,0.08,0.09
26.501,0.02,0.05,0.04,0.07
26.511,0.05,0.02,-0.00,0.06
26.521,0.10,0.00,-0.03,0.10
26.531,0.13,0.01,-0.09,0.16
26.541,0.14,0.01,-0.09,0.17
26.551,0.13,0.01,-0.10,0.17
26.561,0.11,0.00,-0.14,0.18
26.571,0.10,0.01,-0.12,0.16
26.581,0.10,-0.00,-0.09,0.13
26.591,0.05,-0.02,-0.04,0.06
26.601,0.02,0.00,0.02,0.03
26.611,0.01,0.02,0.10,0.10
26.621,-0.02,-0.00,0.15,0.15
26.631,-0.03,-0.01,0.16,0.16
26.641,-0.02,-0.03,0.17,0.18
26.651,-0.03,-0.03,0.17,0.18
26.661,0.01,-0.04,0.13,0.14
26.671,0.02,0.01,0.06,0.07
26.681,-0.02,0.06,0.04,0.08
26.691,-0.01,0.07,0.04,0.08
26.701,-0.05,0.07,0.04,0.09
26.711,-0.07,0.05,0.05,0.10
26.721,-0.04,0.05,0.05,0.08
26.731,-0.03,0.06,0.03,0.07
26.740,-0.00,0.06,0.01,0.06
26.751,0.03,0.05,-0.01,0.06
26.760,0.04,0.03,-0.04,0.06
26.770,0.02,0.01,-0.06,0.07
26.780,0.00,0.01,-0.04,0.04
26.790,-0.03,0.03,-0.02,0.04
26.800,-0.03,0.04,0.02,0.05
26.810,-0.04,0.06,0.08,0.11
26.820,-0.05,0.05,0.11,0.13
26.830,-0.07,0.03,0.16,0.18
26.840,-0.11,0.02,0.18,0.21
26.850,-0.13,0.05,0.16,0.21
26.860,-0.13,0.07,0.17,0.23
26.870,-0.14,0.06,0.18,0.23
26.880,-0.15,0.04,0.17,0.22
26.890,-0.09,0.03,0.16,0.19
26.900,-0.06,0.05,0.13,0.15
26.910,-0.06,0.08,0.08,0.13
26.920,-0.04,0.10,0.05,0.12
26.930,-0.05,0.08,0.05,0.11
26.940,-0.05,0.06,-0.00,0.08
26.950,-0.04,0.03,-0.02,0.06
26.960,-0.05,0.02,-0.06,0.08
26.970,-0.06,0.02,-0.10,0.12
26.980,-0.05,-0.01,-0.12,0.13
26.990,-0.02,-0.02,-0.12,0.12
27.000,0.01,-0.02,-0.05,0.06
27.010,0.02,-0.03,0.02,0.04
27.020,0.01,-0.02,0.08,0.08
27.030,0.02,0.00,0.11,0.11
27.040,0.02,0.03,0.09,0.10
27.050,0.01,0.05,0.05,0.08
27.060,0.00,0.03,-0.00,0.03
27.070,0.03,0.02,-0.01,0.04
27.080,0.04,0.01,-0.04,0.06
27.090,0.05,0.01,-0.03,0.06
27.100,0.07,-0.01,-0.02,0.07
27.110,0.08,0.01,-0.02,0.08
27.120,0.09,0.01,-0.03,0.10
27.130,0.09,0.01,-0.05,0.10
27.140,0.09,0.01,-0.05,0.11
27.150,0.09,0.03,-0.07,0.12
27.160,0.09,0.02,-0.08,0.12
27.170,0.09,-0.00,-0.06,0.11
27.180,0.08,-0.02,-0.04,0.09
27.190,0.06,-0.02,-0.03,0.07
27.200,0.04,-0.03,0.01,0.05
27.210,0.01,0.01,0.02,0.02
27.220,-0.01,-0.00,0.04,0.04
27.230,-0.01,0.01,0.03,0.04
27.239,-0.02,0.00,0.02,0.03
27.249,-0.01,0.01,0.01,0.01
27.259,-0.02,0.00,-0.01,0.03
27.269,-0.03,-0.01,-0.04,0.05
27.279,-0.01,0.00,-0.05,0.05
27.289,-0.00,0.00,-0.05,0.05
27.299,-0.01,0.02,-0.04,0.04
27.309,-0.02,0.04,-0.03,0.06
27.319,-0.03,0.06,-0.00,0.06
27.329,-0.05,0.07,0.01,0.08
27.339,-0.05,0.08,0.02,0.10
27.349,-0.06,0.06,0.03,0.09
27.359,-0.08,0.03,0.04,0.09
27.369,-0.10,0.01,0.01,0.10
27.379,-0.09,0.02,-0.00,0.10
27.389,-0.08,0.03,0.00,0.08
27.399,-0.05,0.06,-0.02,0.08
27.409,-0.05,0.07,-0.03,0.09
27.419,-0.04,0.08,-0.02,0.09
27.429,-0.06,0.06,-0.05,0.10
27.439,-0.08,0.03,-0.06,0.10
27.449,-0.08,0.01,-0.06,0.10
27.459,-0.07,0.00,-0.08,0.11
27.469,-0.03,0.01,-0.11,0.11
27.479,-0.04,0.03,-0.12,0.13
27.489,-0.04,0.05,-0.09,0.11
27.499,-0.03,0.06,-0.06,0.09
27.509,-0.01,0.04,-0.05,0.07
27.519,0.00,0.05,-0.04,0.06
27.529,0.00,0.03,-0.03,0.04
27.539,-0.01,0.02,-0.02,0.03
27.549,-0.01,0.00,-0.02,0.03
27.559,-0.01,0.00,-0.04,0.04
27.569,0.02,-0.00,-0.05,0.05
27.579,-0.01,-0.00,-0.03,0.03
27.589,-0.01,-0.00,0.01,0.02
27.599,-0.04,-0.01,0.04,0.06
27.609,-0.01,-0.02,0.07,0.07
27.619,0.02,-0.01,0.05,0.05
27.629,0.02,-0.02,-0.01,0.03
27.638,0.06,-0.01,-0.02,0.07
27.649,0.06,0.01,-0.05,0.08
27.659,0.04,0.01,-0.06,0.07
27.669,0.03,0.01,-0.06,0.07
27.678,0.04,0.01,-0.03,0.05
27.688,0.06,0.01,0.03,0.07
27.698,0.09,0.03,0.03,0.10
27.708,0.12,0.03,0.02,0.12
27.718,0.08,0.01,-0.01,0.09
27.728,0.07,0.01,-0.05,0.08
27.738,0.06,0.00,-0.08,0.10
27.748,0.06,-0.01,-0.07,0.09
27.758,0.02,-0.02,-0.06,0.07
27.768,0.01,0.01,-0.03,0.03
27.778,0.01,0.02,0.02,0.03
27.788,-0.01,0.05,0.05,0.07
27.798,-0.02,0.04,0.10,0.11
27.808,-0.02,0.02,0.11,0.12
27.818,-0.06,0.02,0.12,0.14
27.828,-0.08,0.01,0.09,0.12
27.838,-0.10,0.01,0.09,0.14
27.848,-0.15,0.02,0.05,0.16
27.858,-0.17,0.05,0.05,0.18
27.868,-0.19,0.09,0.03,0.21
27.878,-0.17,0.08,0.03,0.19
27.888,-0.12,0.06,-0.00,0.13
27.898,-0.11,0.08,-0.01,0.14
27.908,-0.11,0.12,-0.03,0.16
27.918,-0.10,0.11,-0.02,0.15
27.928,-0.04,0.06,-0.07,0.10
27.938,0.01,-0.01,-0.03,0.04
27.948,0.02,-0.07,0.00,0.07
27.958,0.03,-0.10,-0.00,0.11
27.968,0.05,-0.11,-0.08,0.14
27.978,0.07,-0.06,-0.14,0.17
27.988,0.07,0.05,-0.17,0.20
27.998,0.05,0.17,-0.13,0.22
28.008,0.03,0.12,-0.07,0.14
28.018,0.06,-0.19,-0.07,0.21
28.028,0.06,-0.20,-0.02,0.21
28.038,0.10,-0.01,0.07,0.13
28.048,0.06,0.14,0.15,0.21
28.058,-0.00,0.11,0.13,0.17
28.068,-0.13,-0.01,0.02,0.13
28.078,-0.09,-0.08,-0.03,0.13
28.088,-0.00,-0.10,-0.07,0.12
28.098,0.02,-0.06,-0.11,0.13
28.108,-0.11,-0.05,-0.13,0.17
28.117,-0.16,0.06,-0.13,0.21
28.128,-0.03,0.05,-0.16,0.17
28.137,-0.11,0.22,-0.08,0.26
28.148,-0.07,0.17,0.06,0.19
28.157,-0.00,0.05,0.17,0.18
28.167,-0.05,0.02,0.15,0.16
28.177,-0.12,0.09,0.13,0.20
28.187,-0.31,0.08,0.11,0.34
28.197,-0.30,0.10,0.07,0.33
28.207,-0.17,0.08,0.06,0.19
28.217,-0.05,-0.00,0.13,0.14
28.227,-0.00,0.09,0.22,0.24
28.237,0.17,0.07,0.17,0.25
28.247,0.27,-0.05,0.17,0.32
28.257,0.13,-0.10,0.18,0.24
28.267,0.07,-0.12,0.10,0.18
28.277,-0.01,-0.12,0.05,0.13
28.287,0.02,-0.08,-0.03,0.09
28.297,-0.30,1.02,-0.03,1.07
28.307,-2.55,6.05,0.35,6.58
28.317,-1.94,4.50,-0.31,4.92
28.327,-0.75,0.06,-0.44,0.87
28.337,-0.67,-1.30,-0.77,1.65
28.347,0.16,-2.37,-0.88,2.53
28.357,0.45,-3.30,-0.73,3.41
28.367,0.42,-2.73,-0.31,2.78
28.377,0.61,-1.93,0.09,2.03
28.387,2.55,-3.24,0.35,4.14
28.397,3.96,-3.04,0.69,5.04
28.407,2.94,-1.75,1.18,3.62
28.417,1.63,0.08,0.44,1.69
28.427,0.47,1.26,0.06,1.35
28.437,-0.32,1.87,0.10,1.90
28.447,-0.96,2.03,0.08,2.25
28.457,-1.44,1.76,0.09,2.28
28.467,-1.46,1.01,0.24,1.79
28.477,-1.01,0.06,0.42,1.10
28.487,-0.47,-0.61,0.48,0.90
28.497,-0.03,-0.86,0.44,0.97
28.507,0.21,-0.77,0.40,0.89
28.517,0.24,-0.42,0.38,0.62
28.527,0.11,-0.01,0.39,0.41
28.537,-0.22,0.30,0.37,0.53
28.547,-0.61,0.44,0.30,0.81
28.556,-0.90,0.55,0.14,1.06
28.566,-1.01,0.67,-0.07,1.21
28.576,-0.94,0.66,-0.29,1.18
28.587,-0.84,0.49,-0.45,1.07
28.596,-0.67,0.41,-0.55,0.96
28.606,-0.65,0.34,-0.58,0.94
28.616,-0.68,0.27,-0.59,0.94
28.626,-0.69,0.18,-0.55,0.90
28.636,-0.63,0.09,-0.51,0.81
28.647,-0.42,-0.02,-0.42,0.59
28.656,-0.12,-0.18,-0.30,0.37
28.666,0.31,-0.34,-0.10,0.47
28.676,0.61,0.02,-0.54,0.82
28.686,0.51,0.54,-0.72,1.04
28.696,0.57,-0.17,0.88,1.06
28.706,0.68,-0.81,1.59,1.91
28.716,0.63,-0.82,1.43,1.77
28.726,0.57,-0.61,1.09,1.37
28.736,0.40,-0.27,0.58,0.75
28.746,0.16,0.08,0.13,0.22
28.756,0.03,0.27,0.01,0.27
28.766,-0.14,0.46,0.03,0.48
28.776,-0.26,0.62,-0.08,0.68
28.786,-0.28,0.71,-0.30,0.82
28.796,-0.28,0.74,-0.66,1.03
28.806,-0.43,0.65,-0.90,1.18
28.816,-0.34,0.10,-0.84,0.91
28.826,-0.00,-0.72,-0.52,0.88
28.836,0.58,-1.24,-0.18,1.38
28.846,1.16,-0.96,-0.15,1.51
28.856,1.60,-0.46,-0.22,1.68
28.866,1.89,-0.18,-0.41,1.94
28.876,2.11,0.33,-0.66,2.24
28.886,2.75,1.92,-0.84,3.46
28.896,2.88,3.27,-0.92,4.45
28.906,1.99,3.32,-0.82,3.95
28.916,0.46,2.24,-0.35,2.32
28.926,-1.33,0.36,0.19,1.39
28.936,-2.61,-1.22,0.72,2.97
28.946,-2.44,-1.13,1.01,2.87
28.956,-1.63,-0.64,1.25,2.15
28.966,-1.49,-1.07,1.41,2.31
28.976,-0.91,-1.58,1.34,2.27
28.986,0.10,-1.59,0.98,1.88
28.996,0.44,-2.19,0.67,2.34
29.006,0.64,-2.86,0.60,2.99
29.016,1.20,-3.03,0.73,3.34
29.025,2.13,-2.84,0.92,3.67
29.035,2.88,-2.72,1.10,4.11
29.045,3.16,-2.57,1.30,4.27
29.055,2.46,-1.76,1.27,3.28
29.065,0.92,1.41,0.96,1.94
29.075,-2.11,2.90,0.68,3.65
29.085,-2.80,1.06,0.26,3.00
29.095,-0.75,0.60,0.17,0.98
29.105,0.60,1.38,-0.01,1.50
29.115,1.20,0.79,-0.27,1.46
29.125,1.02,0.14,-1.08,1.49
29.135,0.89,0.29,-2.11,2.30
29.145,-0.65,1.42,-2.97,3.35
29.155,-1.68,2.10,-3.05,4.07
29.165,-2.32,1.87,-2.49,3.88
29.175,-2.40,1.00,-1.99,3.28
29.185,-2.41,0.46,-1.88,3.09
29.195,-2.17,0.18,-1.69,2.75
29.205,-1.56,-0.10,-1.26,2.01
29.215,-1.00,-0.57,-0.79,1.40
29.225,-0.44,-0.79,-0.46,1.01
29.235,0.09,-0.76,-0.34,0.84
29.245,0.97,0.10,-0.43,1.06
29.255,1.82,0.56,-0.51,1.97
29.265,1.92,0.02,-0.37,1.95
29.275,1.22,-0.52,-0.16,1.34
29.285,0.64,-0.98,0.07,1.17
29.295,0.14,-1.84,0.42,1.90
29.305,0.56,-1.71,0.73,1.94
29.315,1.21,-0.93,0.51,1.61
29.325,1.29,0.37,0.15,1.35
29.335,1.11,1.03,0.12,1.52
29.345,0.55,0.47,0.26,0.77
29.355,-0.13,-0.27,0.34,0.45
29.365,-0.57,-0.72,0.16,0.93
29.375,-1.17,-1.71,0.16,2.08
29.385,-1.46,-2.25,0.19,2.69
29.395,-1.39,-1.98,0.30,2.44
29.405,-1.30,-1.42,0.76,2.08
29.415,-1.34,-0.95,1.50,2.22
29.425,-1.36,-1.43,1.73,2.63
29.434,-1.17,-2.16,1.23,2.75
29.445,-0.85,-2.59,0.45,2.76
29.455,-0.45,-2.68,-0.13,2.72
29.465,-0.32,-2.32,-0.36,2.37
29.474,-0.38,-2.04,-0.25,2.09
29.485,-0.67,-2.26,-0.25,2.37
29.495,-1.67,-2.93,-0.24,3.38
29.504,-2.22,-3.17,-0.04,3.87
29.514,-1.91,-3.21,0.09,3.74
29.525,-1.31,-2.95,0.20,3.23
29.534,-1.23,-3.42,0.43,3.66
29.544,-1.58,-4.05,0.83,4.43
29.554,-1.28,-3.46,0.82,3.78
29.564,-0.45,-2.50,0.88,2.69
29.574,0.07,-1.05,0.64,1.23
29.584,0.13,-0.56,-0.08,0.58
29.594,0.16,-0.14,-0.57,0.61
29.604,0.62,0.06,-0.33,0.71
29.614,1.43,0.74,-0.40,1.66
29.624,2.24,1.45,-0.58,2.74
29.634,2.78,0.57,-0.24,2.84
29.644,3.44,1.04,0.19,3.60
29.654,3.09,3.22,0.13,4.46
29.664,5.91,1.91,-0.25,6.21
29.674,7.98,0.52,3.99,8.94
29.684,5.08,-3.36,3.08,6.82
29.694,3.99,-3.55,1.89,5.67
29.704,2.60,-1.26,0.72,2.97
29.714,-0.61,1.05,0.07,1.22
29.724,-5.29,0.99,-3.18,6.25
29.734,-3.85,-1.76,-5.24,6.73
29.744,-3.26,-1.08,-4.75,5.86
29.754,-1.92,-1.70,-2.73,3.75
29.764,-1.35,-4.26,-0.38,4.49
29.774,-1.92,-5.98,0.92,6.35
29.784,-2.60,-4.91,2.01,5.91
29.794,-2.38,-3.00,4.07,5.59
29.804,-1.31,-2.27,4.98,5.63
29.814,0.05,-1.89,5.56,5.87
29.824,0.79,-1.93,5.67,6.04
29.834,-0.09,-2.90,6.26,6.90
29.844,-1.39,-2.15,5.19,5.78
29.854,-1.26,-1.84,3.19,3.89
29.864,-1.85,-2.16,0.92,2.99
29.874,-3.39,-1.94,3.02,4.94
29.884,-4.53,-0.46,4.53,6.43
29.894,-4.67,0.47,3.06,5.60
29.904,-5.57,1.16,2.90,6.39
29.913,-6.99,1.40,3.44,7.92
29.924,-8.92,0.85,4.09,9.85
29.933,-9.54,0.49,4.41,10.52
29.944,-9.32,0.25,3.79,10.06
29.953,-9.09,-0.46,2.93,9.56
29.963,-7.86,-0.40,1.66,8.04
29.973,-6.38,0.21,0.28,6.39
29.983,-6.12,-0.19,-0.25,6.13
29.993,-5.35,-1.01,-0.82,5.50
30.003,-3.25,-0.25,-1.84,3.74
30.013,-1.05,0.89,-2.48,2.83
30.023,-0.07,1.36,-3.35,3.62
30.033,-0.33,0.52,-4.41,4.45
30.043,-0.83,-0.80,-5.53,5.65
30.053,-0.25,-0.99,-6.56,6.64
30.063,0.35,0.17,-7.30,7.31
30.073,0.78,1.72,-6.10,6.39
30.083,1.30,2.10,-5.23,5.79
30.093,2.21,2.23,-4.04,5.11
30.103,2.48,2.21,-3.67,4.95
30.113,3.07,0.67,-4.44,5.45
30.123,2.78,-1.63,-5.46,6.34
30.133,2.35,-1.99,-6.51,7.20
30.143,2.47,-1.09,-6.86,7.37
30.153,2.90,-1.63,-6.66,7.45
30.163,3.00,-2.22,-6.66,7.64
30.173,2.27,-1.96,-6.97,7.59
30.183,0.83,-1.40,-6.88,7.07
30.193,0.97,-1.11,-6.14,6.31
30.203,2.72,-1.70,-5.55,6.40
30.213,4.01,-1.77,-4.85,6.53
30.223,3.82,-1.44,-4.42,6.02
30.233,3.36,-1.05,-3.13,4.71
30.243,2.65,-1.04,-2.46,3.76
30.253,2.28,-1.15,-2.11,3.31
30.263,1.91,-1.01,-1.98,2.93
30.273,2.16,-1.36,2.99,3.93
30.283,1.95,-2.15,5.98,6.65
30.293,1.38,-2.25,3.15,4.11
30.303,5.25,-3.66,13.21,14.68
30.313,8.29,-3.52,5.79,10.71
30.323,5.97,-3.23,-1.76,7.01
30.333,2.26,-3.03,-4.18,5.63
30.343,0.76,-3.03,-4.92,5.82
30.352,1.26,-3.41,-4.00,5.41
30.363,2.25,-4.06,-2.94,5.49
30.373,2.18,-4.32,-2.76,5.57
30.383,1.49,-4.04,-3.08,5.30
30.392,0.79,-3.86,-3.11,5.02
30.402,-0.05,-3.64,-2.71,4.54
30.412,-0.51,-2.36,-1.93,3.09
30.422,-0.52,-0.68,-0.76,1.14
30.432,-0.37,0.26,0.96,1.06
30.442,-0.59,0.49,3.47,3.55
30.452,-0.81,0.03,3.93,4.01
30.462,-0.22,-0.67,3.09,3.17
30.472,-0.21,-1.16,1.94,2.27
30.482,0.06,-1.16,0.67,1.34
30.492,0.37,-0.61,-0.30,0.78
30.502,0.65,-0.02,-0.76,1.00
30.512,0.37,0.12,-0.98,1.05
30.522,-0.39,-0.08,-0.57,0.69
30.532,-0.80,-0.32,-0.10,0.87
30.542,-0.55,-0.29,-0.04,0.62
30.552,-0.36,-0.17,0.04,0.40
30.562,-0.06,-0.18,0.02,0.19
30.572,0.26,-0.29,-0.23,0.45
30.582,0.35,-0.28,-0.39,0.59
30.592,0.22,-0.16,-0.37,0.46
30.602,0.03,-0.05,-0.40,0.40
30.612,-0.10,-0.02,-0.50,0.51
30.622,-0.29,0.01,-0.59,0.66
30.632,-0.57,0.02,-0.56,0.80
30.642,-0.65,0.17,-0.55,0.87
30.652,-0.52,0.28,-0.59,0.84
30.662,-0.52,0.19,-0.48,0.73
30.672,-0.54,0.04,-0.19,0.57
30.682,-0.63,-0.10,0.22,0.68
30.692,-0.97,-0.15,0.68,1.19
30.702,-0.86,-0.11,0.59,1.05
30.712,-0.51,-0.06,0.35,0.62
30.722,-0.41,-0.05,0.25,0.48
30.732,-0.40,-0.14,0.27,0.50
30.742,-0.26,-0.22,0.21,0.40
30.752,-0.10,-0.09,0.27,0.30
30.762,0.06,0.08,0.31,0.33
30.772,0.15,0.05,0.18,0.24
30.781,0.11,-0.15,0.02,0.18
30.792,0.03,-0.17,-0.00,0.17
30.802,-0.10,-0.09,0.08,0.15
30.811,-0.22,-0.01,0.12,0.25
30.821,-0.32,0.07,0.19,0.38
30.831,-0.15,0.09,0.14,0.22
30.841,0.06,0.01,0.16,0.17
30.851,0.20,-0.07,0.28,0.36
30.861,0.24,-0.10,0.48,0.55
30.871,0.35,-0.12,0.35,0.51
30.881,0.64,-0.09,0.57,0.86
30.891,0.60,-0.09,0.16,0.63
30.901,0.21,-0.31,-0.25,0.45
30.911,0.16,-0.18,-0.57,0.62
30.921,0.13,0.04,-0.76,0.78
30.931,-0.07,0.16,-0.69,0.71
30.941,-0.16,0.11,-0.59,0.62
30.951,-0.11,0.25,-0.56,0.63
30.961,0.14,0.15,-0.33,0.39
30.971,0.45,-0.04,-0.13,0.47
30.981,0.62,-0.05,-0.15,0.64
