time,ax,ay,az,atotal
0.000,0.09,0.45,-0.86,0.98
0.010,0.32,0.36,-0.37,0.60
0.020,0.51,0.51,0.50,0.87
0.030,0.13,0.43,1.06,1.15
0.040,0.07,0.18,1.44,1.45
0.050,-0.05,-0.17,1.73,1.74
0.060,-0.07,-0.62,2.34,2.42
0.070,-0.23,-0.92,2.58,2.75
0.080,-0.41,-1.08,2.09,2.39
0.090,-0.37,-1.16,1.16,1.69
0.100,-0.15,-1.00,0.34,1.07
0.110,0.41,-0.36,-0.19,0.58
0.120,0.96,0.49,-0.48,1.18
0.130,0.34,0.69,-0.71,1.04
0.140,0.14,0.85,-1.10,1.39
0.150,0.26,0.95,-1.49,1.78
0.160,0.14,0.81,-1.57,1.77
0.170,-0.08,0.47,-0.97,1.08
0.180,-0.22,0.15,0.12,0.30
0.190,-0.04,0.07,1.05,1.06
0.199,0.33,-0.07,1.58,1.62
0.209,0.50,-0.26,1.50,1.60
0.219,0.24,-0.10,1.07,1.10
0.229,-0.24,0.09,0.63,0.68
0.239,-0.57,0.01,0.33,0.66
0.249,-0.55,-0.29,0.24,0.66
0.260,-0.29,-0.68,0.33,0.81
0.269,-0.13,-1.05,0.63,1.23
0.279,-0.07,-1.28,0.76,1.49
0.289,0.03,-1.48,0.58,1.59
0.299,0.24,-1.30,0.15,1.33
0.309,0.40,-0.85,-0.32,0.99
0.319,0.60,-0.72,-0.98,1.35
0.329,0.73,-0.83,-1.66,2.00
0.339,0.60,-0.78,-1.98,2.21
0.349,0.26,-0.67,-1.95,2.07
0.359,-0.08,-0.83,-1.74,1.93
0.369,-0.08,-0.90,-1.59,1.83
0.379,0.08,-0.93,-1.40,1.68
0.389,0.10,-0.87,-1.02,1.35
0.399,0.01,-0.72,-0.69,0.99
0.409,-0.08,-0.55,-0.59,0.81
0.419,-0.17,-0.36,-0.52,0.66
0.429,-0.20,-0.35,-0.14,0.42
0.439,-0.20,-0.44,0.58,0.76
0.449,-0.33,-0.54,1.18,1.34
0.459,-0.53,-0.66,1.45,1.68
0.469,-0.69,-0.79,1.62,1.92
0.479,-0.84,-0.82,1.57,1.96
0.489,-0.94,-0.67,1.29,1.73
0.499,-0.93,-0.40,1.31,1.65
0.509,-0.84,-0.16,1.58,1.80
0.519,-0.62,0.05,1.65,1.77
0.529,-0.33,0.20,1.53,1.58
0.539,-0.15,0.28,1.54,1.58
0.549,-0.11,0.39,1.45,1.51
0.559,-0.13,0.58,1.19,1.33
0.569,-0.17,0.64,1.05,1.24
0.579,-0.18,0.62,0.94,1.14
0.589,-0.23,0.74,0.75,1.08
0.599,-0.34,0.96,0.59,1.18
0.609,-0.40,0.95,0.65,1.22
0.619,-0.22,0.82,0.77,1.15
0.629,0.09,0.92,0.71,1.17
0.639,0.18,1.07,0.69,1.29
0.649,0.32,0.95,1.37,1.69
0.658,0.38,0.83,1.89,2.10
0.669,0.35,0.79,1.75,1.95
0.678,0.17,0.86,1.43,1.68
0.688,-0.05,0.92,1.10,1.43
0.698,-0.11,0.96,0.83,1.27
0.708,-0.18,0.94,0.64,1.15
0.718,-0.24,0.83,0.69,1.11
0.728,-0.28,0.75,0.79,1.13
0.738,-0.33,0.66,0.78,1.07
0.748,-0.34,0.58,0.82,1.06
0.758,-0.43,0.51,0.67,0.95
0.768,-0.57,0.43,0.56,0.91
0.778,-0.72,0.28,0.70,1.04
0.788,-0.76,0.07,0.84,1.14
0.798,-0.65,-0.14,1.00,1.20
0.808,-0.54,-0.18,0.98,1.14
0.818,-0.57,-0.11,0.66,0.87
0.828,-0.59,0.00,0.34,0.68
0.838,-0.54,0.10,0.23,0.60
0.848,-0.54,0.12,0.19,0.59
0.858,-0.56,0.10,0.31,0.65
0.868,-0.55,0.07,0.43,0.70
0.878,-0.61,0.00,0.42,0.73
0.888,-0.75,0.01,0.26,0.79
0.898,-0.89,-0.03,0.13,0.90
0.908,-0.92,-0.23,0.47,1.06
0.918,-0.92,-0.42,0.67,1.21
0.928,-1.01,-0.56,0.78,1.39
0.938,-1.01,-0.38,0.41,1.16
0.948,-0.88,-0.08,-0.53,1.03
0.958,-0.87,-0.09,0.02,0.88
0.968,-0.77,0.02,0.79,1.11
0.978,-0.41,-0.06,1.62,1.67
0.988,-0.08,0.02,2.15,2.15
0.998,0.08,0.41,1.97,2.01
1.008,0.09,0.52,1.17,1.29
1.018,-0.02,0.51,0.27,0.58
1.028,-0.16,0.41,-0.33,0.55
1.038,-0.21,0.37,-0.53,0.68
1.048,-0.26,0.34,-0.36,0.56
1.058,-0.27,0.35,0.00,0.45
1.068,-0.06,0.46,0.19,0.50
1.078,0.46,0.53,0.27,0.75
1.088,0.81,0.53,0.29,1.01
1.098,0.89,0.45,0.36,1.06
1.108,0.92,0.41,0.25,1.04
1.118,0.71,0.54,0.28,0.94
1.128,0.42,0.65,0.50,0.92
1.138,0.54,0.63,0.60,1.03
1.147,0.66,0.55,0.46,0.98
1.157,0.56,0.52,0.17,0.78
1.168,0.40,0.45,0.03,0.61
1.177,0.24,0.38,-0.04,0.45
1.187,-0.01,0.28,-0.07,0.29
1.197,-0.17,0.15,-0.06,0.23
1.207,-0.23,-0.00,0.00,0.23
1.217,-0.26,-0.21,0.12,0.35
1.227,-0.21,-0.28,0.20,0.40
1.237,-0.08,-0.23,0.19,0.31
1.247,0.05,-0.09,0.01,0.10
1.257,0.03,-0.07,-0.23,0.25
1.267,-0.01,-0.15,-0.28,0.32
1.277,-0.13,-0.08,-0.45,0.47
1.287,-0.39,-0.06,-0.62,0.73
1.297,-0.47,-0.20,-0.61,0.80
1.307,-0.37,-0.27,-0.46,0.65
1.317,-0.19,-0.26,-0.23,0.39
1.327,-0.24,-0.20,-0.10,0.32
1.337,-0.34,-0.18,-0.05,0.39
1.347,-0.07,-0.52,0.17,0.55
1.357,0.27,-0.75,0.45,0.91
1.367,-0.34,0.22,0.26,0.48
1.377,-0.44,0.68,-0.01,0.81
1.387,-0.14,0.20,-0.33,0.41
1.397,0.31,-0.36,-0.70,0.85
1.407,0.19,-0.39,-1.06,1.14
1.417,-0.05,-0.26,-1.34,1.36
1.427,0.01,-0.27,-1.31,1.34
1.437,0.28,-0.33,-0.74,0.86
1.447,0.47,-0.42,0.13,0.64
1.457,0.30,-0.51,0.50,0.77
1.467,0.03,-0.45,0.34,0.56
1.477,-0.24,-0.27,0.03,0.36
1.487,-0.38,-0.05,-0.26,0.46
1.497,-0.34,0.23,-0.29,0.51
1.507,-0.26,0.26,-0.32,0.49
1.517,-0.23,0.22,-0.55,0.64
1.527,-0.18,0.33,-0.81,0.90
1.537,-0.52,0.59,-1.04,1.30
1.547,-1.08,0.91,-0.68,1.57
1.557,-1.13,1.26,-0.26,1.71
1.567,-0.96,1.30,-0.01,1.62
1.577,-1.00,1.19,0.53,1.64
1.587,-1.03,0.91,1.30,1.89
1.596,-0.77,0.17,1.90,2.06
1.606,-0.41,-0.24,2.21,2.26
1.616,-0.33,-0.36,2.59,2.64
1.626,0.05,-0.59,2.60,2.66
1.636,0.39,-0.67,2.44,2.56
1.646,0.24,-0.16,2.56,2.58
1.656,0.67,-0.19,2.33,2.43
1.666,0.98,-0.91,1.40,1.93
1.676,1.09,-0.30,0.84,1.41
1.686,1.43,0.69,0.09,1.59
1.696,1.69,1.19,-1.29,2.43
1.706,1.84,0.65,-2.59,3.24
1.716,2.37,0.05,-2.55,3.48
1.726,2.55,-0.01,-1.61,3.02
1.736,2.27,0.15,-0.49,2.33
1.746,1.90,0.44,0.38,1.99
1.756,1.36,0.60,0.38,1.53
1.766,0.74,0.41,-0.03,0.85
1.776,0.37,0.11,-0.01,0.38
1.786,0.14,-0.07,0.36,0.39
1.796,-0.19,-0.10,0.67,0.70
1.806,-0.35,-0.20,1.01,1.09
1.816,-0.49,-0.45,1.15,1.33
1.826,-0.42,-0.54,0.71,0.99
1.836,-0.12,-0.52,0.18,0.57
1.846,0.06,-0.35,0.05,0.36
1.856,0.21,-0.03,-0.52,0.56
1.866,0.25,-0.04,-0.56,0.61
1.876,0.32,-0.07,-0.34,0.47
1.886,0.17,-0.25,-0.07,0.31
1.896,0.20,-0.39,0.17,0.47
1.906,0.69,-0.53,-0.13,0.88
1.916,0.48,-0.22,-0.26,0.58
1.926,-0.04,0.16,0.08,0.18
1.936,-0.08,0.27,0.46,0.54
1.946,-0.05,0.32,0.54,0.63
1.956,-0.03,0.37,0.38,0.54
1.966,0.01,0.28,0.28,0.40
1.976,0.14,0.15,0.39,0.44
1.986,0.32,0.08,0.62,0.71
1.996,0.47,0.01,0.84,0.96
2.006,0.50,-0.04,0.69,0.85
2.016,0.50,-0.06,0.29,0.58
2.025,0.46,0.01,0.06,0.47
2.036,0.32,0.14,-0.02,0.35
2.046,-0.12,0.30,-0.30,0.44
2.056,-0.88,0.48,-1.09,1.48
2.065,-1.18,0.51,-1.26,1.80
2.075,-0.74,0.19,-0.78,1.09
2.085,-0.39,-0.21,0.16,0.48
2.095,-0.19,-0.20,1.11,1.14
2.105,-0.27,0.01,1.31,1.34
2.115,-0.31,0.12,0.94,1.00
2.125,-0.17,0.04,0.30,0.35
2.135,0.24,-0.04,0.01,0.25
2.145,0.48,0.02,-0.15,0.51
2.155,0.70,-0.03,-0.18,0.73
2.165,0.77,-0.01,-0.27,0.82
2.175,0.73,0.08,-0.31,0.80
2.185,0.59,0.13,-0.18,0.63
2.195,0.38,0.09,0.11,0.41
2.205,0.23,0.14,0.33,0.43
2.215,0.15,0.12,0.56,0.59
2.225,0.07,-0.04,0.80,0.80
2.235,-0.04,-0.12,0.76,0.77
2.245,-0.14,-0.03,0.44,0.46
2.255,-0.13,0.10,0.01,0.17
2.265,-0.13,0.16,-0.36,0.42
2.275,-0.13,0.20,-0.46,0.52
2.285,-0.12,0.19,-0.26,0.34
2.295,-0.15,0.10,-0.20,0.27
2.305,-0.26,0.03,-0.31,0.41
2.315,-0.37,-0.00,-0.36,0.51
2.325,-0.43,-0.08,-0.37,0.57
2.335,-0.36,-0.25,-0.27,0.51
2.345,-0.24,-0.30,-0.20,0.44
2.355,-0.18,-0.26,-0.23,0.39
2.365,-0.13,-0.11,-0.37,0.41
2.375,-0.10,0.10,-0.45,0.48
2.385,-0.03,0.11,-0.14,0.18
2.395,0.09,-0.02,0.13,0.16
2.405,0.16,-0.09,0.11,0.21
2.415,0.20,-0.03,0.03,0.21
2.425,0.24,0.01,-0.00,0.24
2.435,0.23,-0.01,-0.09,0.25
2.445,0.14,-0.04,-0.27,0.31
2.455,0.09,-0.07,-0.22,0.25
2.465,0.04,-0.09,-0.11,0.15
2.475,-0.06,-0.09,0.15,0.19
2.485,-0.22,-0.07,0.38,0.45
2.494,-0.27,0.02,0.40,0.48
2.505,-0.20,0.10,0.03,0.23
2.514,-0.05,0.17,-0.36,0.40
2.525,0.21,0.22,-0.33,0.45
2.534,0.31,0.20,-0.24,0.44
2.544,0.31,0.15,-0.12,0.37
2.554,0.26,0.14,-0.05,0.30
2.564,0.21,0.16,-0.07,0.28
2.574,0.18,0.20,0.04,0.27
2.584,0.19,0.18,0.23,0.35
2.594,0.16,0.11,0.37,0.42
2.604,0.11,0.08,0.36,0.39
2.614,0.05,0.06,0.22,0.23
2.624,-0.09,0.04,0.09,0.13
2.634,-0.21,0.05,-0.03,0.22
2.644,-0.22,0.10,0.10,0.26
2.654,-0.21,0.13,0.22,0.33
2.664,-0.22,0.14,0.21,0.33
2.674,-0.23,0.13,0.20,0.33
2.684,-0.24,0.13,0.06,0.28
2.694,-0.22,0.13,-0.02,0.26
2.704,-0.23,0.10,0.03,0.25
2.714,-0.25,0.10,0.17,0.32
2.724,-0.26,0.08,0.31,0.41
2.734,-0.23,0.11,0.25,0.36
2.744,-0.18,0.16,0.16,0.29
2.754,-0.12,0.17,0.17,0.27
2.764,-0.10,0.19,0.21,0.30
2.774,-0.01,0.19,0.27,0.33
2.784,0.04,0.16,0.25,0.29
2.794,0.04,0.15,0.19,0.24
2.804,0.10,0.13,0.15,0.22
2.814,0.16,0.04,0.13,0.21
2.824,0.12,-0.07,0.03,0.14
2.834,0.03,-0.12,-0.04,0.13
2.844,-0.01,-0.10,-0.02,0.11
2.854,-0.15,-0.11,0.02,0.19
2.864,-0.24,-0.15,0.07,0.29
2.874,-0.26,-0.09,0.00,0.27
2.884,-0.22,0.03,-0.08,0.24
2.894,-0.08,0.07,-0.09,0.14
2.904,0.04,0.06,-0.04,0.08
2.914,0.10,0.09,-0.08,0.15
2.924,0.18,0.08,-0.12,0.23
2.934,0.24,0.02,-0.13,0.27
2.944,0.26,-0.02,-0.12,0.29
2.953,0.28,-0.02,-0.08,0.29
2.964,0.24,-0.03,-0.06,0.25
2.973,0.15,-0.03,-0.03,0.16
2.984,0.05,-0.03,0.04,0.07
2.993,-0.05,-0.01,0.06,0.07
3.003,-0.10,0.01,-0.01,0.11
3.013,-0.05,0.03,0.06,0.08
3.023,-0.12,-0.04,0.18,0.22
3.033,-0.17,-0.02,0.18,0.25
3.043,-0.14,0.02,0.10,0.17
3.053,-0.08,0.05,0.14,0.17
3.063,-0.04,0.07,0.10,0.13
3.073,-0.01,0.10,-0.01,0.10
3.083,0.05,0.12,-0.05,0.14
3.093,0.04,0.11,-0.03,0.12
3.103,0.04,0.10,0.11,0.15
3.113,0.03,0.07,0.17,0.18
3.123,0.01,0.06,-0.01,0.06
3.133,-0.02,0.06,-0.08,0.11
3.143,-0.04,0.03,0.23,0.24
3.153,-0.04,-0.01,0.52,0.52
3.163,-0.08,0.00,0.26,0.27
3.173,-0.05,0.06,-0.12,0.15
3.183,0.01,0.11,-0.35,0.36
3.193,0.08,0.13,-0.21,0.26
3.203,0.09,0.11,0.08,0.16
3.213,-0.01,0.05,0.26,0.27
3.223,-0.04,0.06,0.18,0.19
3.233,-0.06,0.09,0.00,0.11
3.243,-0.04,0.13,-0.03,0.14
3.253,-0.04,0.11,0.05,0.13
3.263,-0.07,0.14,0.18,0.24
3.273,-0.11,0.15,0.22,0.29
3.283,-0.09,0.09,0.24,0.27
3.293,-0.07,-0.02,0.32,0.33
3.303,-0.12,-0.08,0.23,0.27
3.313,-0.12,-0.04,0.19,0.23
3.323,-0.07,-0.01,0.27,0.28
3.333,-0.03,0.02,0.26,0.27
3.343,-0.01,0.05,0.03,0.06
3.353,0.05,0.09,-0.20,0.22
3.363,0.08,0.08,-0.27,0.30
3.373,0.08,0.05,-0.02,0.10
3.383,0.04,0.02,0.19,0.19
3.393,-0.02,0.00,0.18,0.18
3.403,-0.10,-0.02,0.11,0.15
3.413,-0.10,-0.02,0.06,0.12
3.423,-0.06,-0.04,-0.02,0.07
3.433,-0.02,-0.03,-0.05,0.07
3.443,-0.01,-0.05,0.17,0.18
3.453,-0.04,-0.00,0.11,0.12
3.463,-0.02,0.01,-0.12,0.12
3.472,0.03,0.03,-0.22,0.22
3.482,0.06,0.07,-0.11,0.14
3.492,0.00,0.13,0.05,0.14
3.502,-0.05,0.15,0.15,0.22
3.512,-0.04,0.14,0.13,0.19
3.522,-0.06,0.13,-0.03,0.15
3.532,-0.08,0.16,-0.10,0.21
3.542,-0.09,0.14,0.04,0.18
3.552,-0.13,0.11,0.28,0.33
3.562,-0.17,0.11,0.40,0.45
3.572,-0.12,0.18,0.30,0.38
3.582,-0.04,0.19,0.04,0.20
3.592,-0.02,0.16,-0.06,0.17
3.602,0.01,0.13,-0.05,0.14
3.612,-0.00,0.15,-0.02,0.15
3.622,-0.04,0.10,0.11,0.15
3.632,-0.08,-0.01,0.35,0.36
3.642,-0.09,-0.07,0.23,0.26
3.652,-0.07,-0.06,-0.08,0.12
3.662,-0.01,-0.03,-0.25,0.25
3.672,0.04,0.01,-0.26,0.26
3.682,0.12,0.04,-0.18,0.22
3.692,0.15,0.03,-0.06,0.17
3.702,0.12,0.01,0.11,0.16
3.712,0.02,-0.06,0.20,0.21
3.722,-0.07,-0.18,0.25,0.31
3.732,-0.14,-0.22,0.06,0.27
3.742,-0.12,-0.13,-0.04,0.18
3.752,-0.07,-0.02,-0.05,0.09
3.762,-0.05,0.05,0.03,0.07
3.772,0.00,0.08,0.18,0.20
3.782,0.01,0.15,0.25,0.29
3.792,0.04,0.18,0.20,0.27
3.802,0.01,0.15,0.07,0.17
3.812,0.03,0.16,0.05,0.17
3.822,0.11,0.12,0.10,0.19
3.832,0.11,0.06,0.03,0.13
3.841,0.05,0.05,-0.08,0.11
3.852,-0.00,0.06,-0.09,0.11
3.862,-0.05,0.08,0.02,0.10
3.872,-0.09,0.11,0.16,0.21
3.882,-0.11,0.15,0.21,0.28
3.891,-0.15,0.17,0.17,0.28
3.902,-0.19,0.15,0.19,0.30
3.911,-0.15,0.15,0.26,0.34
3.921,-0.07,0.16,0.22,0.28
3.931,-0.04,0.13,0.10,0.17
3.941,0.02,0.13,0.03,0.13
3.951,0.06,0.10,0.01,0.12
3.961,0.10,0.05,0.02,0.11
3.971,0.11,-0.03,-0.02,0.11
3.981,0.07,-0.09,-0.06,0.14
3.991,0.04,-0.09,-0.08,0.13
4.001,0.02,-0.06,0.02,0.06
4.011,-0.01,-0.01,0.09,0.09
4.021,-0.03,0.03,0.07,0.08
4.031,-0.09,0.04,0.08,0.13
4.041,-0.11,0.07,0.12,0.18
4.051,-0.13,0.11,0.17,0.24
4.061,-0.10,0.09,0.16,0.21
4.071,-0.05,0.08,0.14,0.17
4.081,-0.01,0.08,-0.02,0.08
4.091,0.03,0.08,-0.05,0.11
4.101,0.11,0.06,0.10,0.16
4.111,0.20,0.10,0.32,0.38
4.121,0.18,0.11,0.21,0.30
4.131,0.13,0.10,-0.00,0.17
4.141,0.11,0.05,-0.11,0.16
4.151,-0.04,-0.00,-0.17,0.18
4.161,-0.12,-0.03,0.05,0.13
4.171,-0.16,-0.02,0.23,0.27
4.181,-0.13,0.04,0.33,0.36
4.191,-0.01,0.13,0.44,0.45
4.201,-0.11,0.15,-0.14,0.23
4.211,-0.11,0.17,-0.33,0.39
4.221,-0.02,0.12,-0.04,0.13
4.231,-0.06,0.07,0.22,0.24
4.241,-0.05,0.09,0.33,0.35
4.251,-0.01,0.11,0.28,0.30
4.261,0.03,0.09,0.04,0.10
4.271,0.16,0.11,0.13,0.23
4.281,0.10,0.16,-0.07,0.21
4.291,-0.14,0.11,-0.33,0.37
4.301,-0.14,0.03,-0.03,0.15
4.311,-0.15,0.00,0.12,0.19
4.321,-0.15,0.04,0.05,0.16
4.331,-0.14,0.10,0.06,0.18
4.341,-0.09,0.15,0.24,0.29
4.351,-0.04,0.17,0.32,0.36
4.361,0.02,0.13,0.24,0.28
4.370,0.03,0.08,0.07,0.11
4.381,-0.00,0.06,-0.12,0.14
4.390,-0.04,0.04,-0.27,0.27
4.400,-0.01,0.02,-0.18,0.18
4.410,-0.00,-0.00,0.03,0.03
4.420,-0.06,0.01,0.11,0.13
4.430,-0.10,0.04,0.16,0.19
4.440,-0.03,0.07,0.14,0.16
4.450,-0.01,0.06,0.04,0.08
4.460,-0.02,0.07,0.00,0.07
4.470,-0.03,0.04,0.00,0.06
4.480,-0.03,0.06,0.04,0.08
4.490,-0.02,0.10,0.05,0.11
4.500,0.01,0.08,0.08,0.11
4.510,-0.01,0.06,0.11,0.13
4.520,-0.05,0.06,0.15,0.17
4.530,-0.07,0.05,0.15,0.17
4.540,-0.05,0.02,0.09,0.10
4.550,-0.02,0.02,0.07,0.07
4.560,-0.01,0.03,0.04,0.05
4.570,0.00,0.04,0.08,0.09
4.580,0.03,0.05,0.08,0.10
4.590,0.03,0.05,0.05,0.08
4.600,0.02,0.04,0.06,0.07
4.610,-0.01,0.03,0.11,0.12
4.620,-0.03,0.04,0.05,0.07
4.630,-0.05,0.00,-0.02,0.05
4.640,-0.05,-0.02,0.05,0.07
4.650,-0.06,-0.01,0.08,0.10
4.660,-0.05,0.01,0.04,0.07
4.670,-0.04,0.02,0.04,0.06
4.680,-0.01,0.00,0.11,0.11
4.690,-0.01,-0.00,0.06,0.06
4.700,-0.01,0.01,0.00,0.02
4.710,0.01,0.02,0.02,0.03
4.720,0.02,0.01,0.08,0.09
4.730,0.02,0.04,0.01,0.05
4.740,0.01,0.07,-0.05,0.09
4.750,-0.01,0.07,0.08,0.11
4.760,-0.02,0.04,0.19,0.20
4.770,-0.02,0.02,0.12,0.12
4.780,-0.03,0.05,-0.01,0.05
4.789,-0.03,0.08,-0.05,0.10
4.800,-0.00,0.11,0.02,0.11
4.810,-0.02,0.10,0.13,0.17
4.820,-0.03,0.08,0.25,0.26
4.829,-0.03,0.07,0.13,0.15
4.839,-0.02,0.07,-0.04,0.09
4.849,0.04,0.11,-0.03,0.11
4.859,0.06,0.14,0.07,0.17
4.869,0.05,0.12,0.15,0.20
4.879,-0.02,0.07,0.16,0.17
4.889,-0.06,0.02,0.15,0.17
4.899,-0.09,-0.02,0.14,0.17
4.909,-0.14,-0.06,0.08,0.17
4.919,-0.10,0.00,0.01,0.11
4.929,-0.07,0.01,0.04,0.08
4.939,-0.01,0.01,0.20,0.20
4.949,0.02,0.03,0.15,0.16
4.959,0.02,0.06,-0.07,0.09
4.969,0.07,0.06,-0.14,0.17
4.979,0.06,0.07,-0.08,0.12
4.989,0.01,0.09,0.02,0.09
4.999,-0.02,0.06,0.11,0.12
5.009,-0.02,0.05,0.06,0.08
5.019,-0.05,0.06,0.00,0.08
5.029,-0.07,0.08,0.06,0.12
5.039,-0.07,0.09,0.22,0.24
5.049,-0.07,0.10,0.22,0.26
5.059,-0.07,0.10,0.12,0.17
5.069,-0.05,0.09,0.07,0.13
5.079,-0.07,0.10,0.03,0.13
5.089,-0.03,0.13,0.01,0.13
5.099,-0.01,0.13,0.05,0.14
5.109,0.01,0.12,0.11,0.16
5.119,-0.01,0.10,0.07,0.12
5.129,-0.02,0.09,0.03,0.10
5.139,0.00,0.09,0.04,0.10
5.149,0.01,0.08,0.12,0.15
5.159,0.01,0.07,0.08,0.11
5.169,-0.04,0.05,-0.04,0.07
5.179,-0.02,0.04,-0.03,0.06
5.189,-0.02,0.02,0.09,0.10
5.199,0.00,0.01,0.14,0.14
5.209,-0.01,-0.00,0.03,0.03
5.219,-0.04,0.02,-0.04,0.06
5.229,-0.06,0.04,0.04,0.09
5.239,-0.08,0.03,0.19,0.20
5.249,-0.06,-0.02,0.20,0.21
5.258,-0.07,-0.02,0.03,0.08
5.269,-0.10,0.01,-0.03,0.11
5.279,-0.05,0.06,0.01,0.08
5.289,0.00,0.09,0.09,0.13
5.298,0.03,0.07,0.20,0.21
5.308,-0.05,0.01,0.21,0.21
5.319,-0.04,-0.02,0.16,0.16
5.328,-0.07,0.01,0.00,0.07
5.339,-0.05,0.05,-0.04,0.08
5.348,0.03,0.05,0.06,0.09
5.358,0.01,0.04,0.07,0.09
5.368,-0.01,0.01,0.07,0.07
5.378,-0.02,-0.04,0.17,0.18
5.388,-0.09,-0.01,0.09,0.13
5.398,-0.05,0.10,0.00,0.11
5.408,-0.03,0.13,0.02,0.14
5.418,-0.04,0.14,0.14,0.20
5.428,-0.03,0.10,0.15,0.19
5.438,-0.03,0.03,0.23,0.23
5.448,-0.02,-0.01,0.13,0.14
5.458,-0.09,0.05,-0.04,0.11
5.468,-0.04,0.10,-0.12,0.16
5.478,-0.04,0.11,-0.04,0.12
5.488,-0.03,0.11,0.06,0.13
5.498,-0.04,0.08,0.04,0.10
5.508,-0.01,0.05,0.00,0.05
5.518,0.03,0.05,-0.03,0.07
5.528,0.02,0.07,-0.06,0.09
5.538,0.05,0.08,-0.05,0.11
5.548,0.07,0.09,0.04,0.12
5.558,0.01,0.07,0.15,0.17
5.568,-0.05,0.01,0.27,0.27
5.578,0.00,-0.04,0.39,0.39
5.588,-0.10,-0.04,0.17,0.20
5.598,-0.10,-0.01,-0.06,0.12
5.608,-0.05,0.07,-0.08,0.12
5.618,-0.04,0.10,0.04,0.11
5.628,-0.02,0.10,0.13,0.17
5.638,-0.04,0.09,0.05,0.11
5.648,-0.03,0.09,0.01,0.10
5.658,-0.01,0.10,0.05,0.11
5.668,-0.02,0.09,0.15,0.17
5.678,0.02,0.08,0.20,0.21
5.688,-0.03,0.05,0.06,0.08
5.698,-0.06,0.03,-0.02,0.07
5.708,-0.06,0.03,-0.02,0.08
5.718,-0.10,0.05,0.06,0.13
5.727,-0.11,0.07,0.13,0.19
5.738,-0.09,0.10,0.07,0.15
5.747,-0.03,0.10,-0.07,0.12
5.757,0.02,0.13,-0.06,0.14
5.767,0.02,0.12,0.12,0.17
5.777,-0.01,0.08,0.30,0.31
5.787,-0.00,0.06,0.14,0.15
5.797,-0.00,0.05,-0.06,0.08
5.807,0.02,0.08,-0.10,0.13
5.817,0.02,0.13,-0.09,0.16
5.827,0.04,0.14,-0.02,0.15
5.837,0.02,0.10,0.20,0.23
5.847,-0.02,0.07,0.25,0.26
5.857,-0.03,0.08,0.10,0.13
5.867,-0.04,0.07,-0.06,0.11
5.877,-0.03,0.07,-0.06,0.10
5.887,-0.03,0.10,0.07,0.12
5.897,-0.08,0.09,0.20,0.24
5.907,-0.14,0.05,0.28,0.32
5.917,-0.09,-0.01,0.27,0.29
5.927,-0.05,-0.01,0.06,0.08
5.937,-0.02,0.03,-0.11,0.12
5.947,0.04,0.04,-0.10,0.12
5.957,0.07,0.02,-0.05,0.09
5.967,0.05,0.03,0.03,0.06
5.977,0.01,0.03,0.09,0.10
5.987,-0.00,0.01,0.19,0.19
5.997,0.03,-0.04,0.18,0.19
6.007,-0.02,-0.04,-0.03,0.05
6.017,-0.02,-0.03,-0.09,0.09
6.027,0.01,-0.02,-0.03,0.04
6.037,-0.02,-0.00,0.06,0.07
6.047,-0.05,0.03,0.16,0.17
6.057,-0.05,0.07,0.14,0.16
6.067,-0.03,0.11,0.07,0.13
6.077,-0.01,0.11,0.04,0.12
6.087,-0.01,0.10,0.09,0.14
6.097,0.02,0.15,0.09,0.17
6.107,0.00,0.15,0.08,0.17
6.117,0.01,0.14,0.09,0.17
6.127,0.03,0.13,0.10,0.16
6.137,0.08,0.12,0.10,0.17
6.147,0.07,0.11,0.08,0.16
6.157,0.04,0.11,0.16,0.20
6.167,0.03,0.10,0.17,0.20
6.177,0.02,0.09,0.11,0.14
6.186,0.05,0.08,0.09,0.13
6.197,0.02,0.06,0.08,0.10
6.206,0.02,0.05,0.08,0.09
6.216,0.00,-0.00,0.08,0.08
6.226,-0.04,-0.01,0.01,0.04
6.236,-0.06,-0.00,-0.02,0.06
6.246,-0.07,0.03,0.04,0.09
6.256,-0.09,0.11,0.06,0.15
6.266,-0.13,0.20,0.07,0.25
6.276,-0.15,0.26,0.14,0.33
6.286,-0.16,0.26,0.17,0.35
6.296,-0.11,0.23,0.22,0.33
6.306,-0.05,0.15,0.18,0.25
6.316,-0.06,0.09,0.14,0.18
6.326,-0.09,0.01,0.06,0.11
6.336,-0.09,-0.11,-0.01,0.14
6.346,-0.13,-0.11,0.03,0.17
6.356,-0.14,-0.15,0.02,0.20
6.366,-0.07,-0.14,0.00,0.15
6.376,-0.01,-0.11,-0.02,0.11
6.386,0.05,-0.07,-0.02,0.09
6.396,0.11,-0.05,0.02,0.12
6.406,0.12,-0.04,0.04,0.13
6.416,0.09,-0.03,0.01,0.10
6.426,0.07,-0.05,-0.02,0.09
6.436,0.06,-0.08,-0.10,0.14
6.446,0.02,-0.09,-0.09,0.13
6.456,-0.01,-0.09,0.02,0.09
6.466,0.02,-0.06,0.07,0.09
6.476,0.04,-0.04,-0.03,0.07
6.486,0.01,-0.05,-0.09,0.11
6.496,-0.02,-0.05,0.07,0.08
6.506,-0.08,0.01,0.28,0.29
6.516,-0.06,0.11,0.24,0.27
6.526,-0.07,0.11,0.02,0.13
6.536,-0.08,0.08,-0.01,0.11
6.546,-0.11,0.06,0.11,0.17
6.556,-0.16,0.04,0.27,0.32
6.566,-0.17,0.07,0.31,0.36
6.576,-0.11,0.10,0.08,0.17
6.586,-0.00,0.07,-0.12,0.14
6.596,0.04,0.04,-0.15,0.16
6.606,0.01,0.05,-0.09,0.11
6.616,-0.01,0.01,0.14,0.14
6.626,-0.08,0.03,0.27,0.28
6.636,-0.06,0.13,0.14,0.20
6.646,0.02,0.17,-0.05,0.18
6.656,0.05,0.17,-0.14,0.23
6.665,0.05,0.20,-0.04,0.21
6.675,0.03,0.24,0.21,0.32
6.685,0.00,0.21,0.51,0.55
6.695,-0.03,0.15,0.29,0.32
6.705,-0.01,0.09,-0.09,0.13
6.715,0.01,0.09,-0.16,0.18
6.725,-0.01,0.10,-0.11,0.15
6.735,-0.01,0.09,0.01,0.09
6.745,-0.01,0.10,0.19,0.22
6.755,-0.01,0.11,0.22,0.24
6.765,-0.01,0.08,0.04,0.09
6.775,-0.02,0.10,-0.07,0.12
6.785,0.03,0.14,-0.09,0.17
6.795,0.04,0.18,-0.05,0.19
6.805,0.04,0.18,0.05,0.19
6.815,-0.00,0.16,0.16,0.23
6.825,-0.05,0.13,0.15,0.21
6.835,-0.09,0.12,0.04,0.16
6.845,-0.09,0.13,-0.00,0.15
6.855,-0.09,0.12,0.03,0.15
6.865,-0.11,0.08,0.16,0.21
6.875,-0.10,0.01,0.25,0.27
6.885,-0.06,-0.01,0.19,0.20
6.895,-0.04,0.02,0.06,0.07
6.905,0.02,0.09,-0.02,0.09
6.915,0.02,0.12,-0.03,0.12
6.925,0.08,0.12,0.09,0.17
6.935,0.01,0.12,0.08,0.14
6.945,-0.07,0.06,0.09,0.13
6.955,-0.14,0.04,0.13,0.19
6.965,-0.14,0.02,0.07,0.15
6.975,-0.13,0.07,0.07,0.16
6.985,-0.07,0.14,0.22,0.27
6.995,0.02,0.18,0.21,0.28
7.005,0.07,0.19,0.05,0.21
7.015,0.06,0.17,-0.02,0.18
7.025,-0.00,0.12,0.10,0.16
7.035,-0.06,0.05,0.37,0.38
7.045,-0.09,0.00,0.26,0.27
7.055,-0.09,-0.04,-0.06,0.12
7.065,-0.04,-0.04,-0.25,0.26
7.075,-0.00,0.01,-0.23,0.24
7.085,0.02,0.05,-0.02,0.06
7.095,0.01,0.05,0.23,0.24
7.105,-0.04,0.00,0.21,0.22
7.115,-0.01,0.01,0.05,0.05
7.125,-0.01,0.05,-0.03,0.06
7.135,0.05,0.09,-0.03,0.11
7.144,0.04,0.14,0.00,0.14
7.154,0.03,0.16,0.11,0.20
7.164,0.01,0.16,0.35,0.38
7.174,-0.05,0.10,0.35,0.37
7.184,-0.07,0.04,0.12,0.14
7.194,-0.08,-0.00,-0.03,0.08
7.204,-0.04,0.04,-0.04,0.06
7.214,-0.04,0.06,0.07,0.10
7.224,-0.05,0.05,0.16,0.17
7.234,-0.02,0.06,0.19,0.20
7.244,0.00,0.07,0.05,0.09
7.254,-0.03,0.06,-0.07,0.10
7.264,-0.03,0.09,-0.04,0.10
7.274,-0.04,0.07,0.05,0.09
7.284,-0.09,0.02,0.13,0.16
7.294,-0.14,-0.04,0.18,0.23
7.304,-0.14,-0.09,0.15,0.22
7.314,-0.10,-0.09,0.10,0.17
7.324,-0.03,-0.01,0.09,0.09
7.334,0.04,0.03,0.04,0.06
7.344,0.07,0.02,0.02,0.07
7.354,0.10,0.00,0.09,0.13
7.364,0.02,-0.00,0.04,0.05
7.374,-0.04,-0.01,-0.01,0.04
7.384,-0.03,-0.00,-0.04,0.05
7.394,-0.06,-0.00,-0.02,0.07
7.404,-0.06,0.02,0.06,0.08
7.414,-0.08,0.03,0.03,0.09
7.424,-0.09,0.05,-0.02,0.11
7.434,-0.06,0.10,0.08,0.14
7.444,-0.04,0.13,0.13,0.19
7.454,-0.05,0.17,0.06,0.18
7.464,-0.06,0.17,0.05,0.19
7.474,-0.07,0.14,0.21,0.26
7.484,-0.07,0.10,0.22,0.26
7.494,-0.10,0.06,0.06,0.13
7.504,-0.08,0.04,-0.04,0.10
7.514,-0.03,0.02,0.04,0.05
7.524,0.00,-0.01,0.14,0.14
7.534,0.00,-0.04,0.06,0.07
7.543,-0.00,-0.03,-0.04,0.05
7.554,0.02,0.03,-0.07,0.08
7.564,0.03,0.12,0.01,0.12
7.573,0.07,0.14,0.22,0.27
7.584,0.02,0.13,0.19,0.23
7.593,-0.04,0.09,0.04,0.11
7.603,-0.08,0.06,0.00,0.10
7.613,-0.09,0.10,0.06,0.15
7.624,-0.10,0.11,0.12,0.19
7.633,-0.11,0.08,0.18,0.23
7.643,-0.09,0.01,0.15,0.17
7.653,-0.05,-0.00,0.04,0.06
7.663,-0.07,0.04,-0.02,0.09
7.673,-0.01,0.10,0.03,0.11
7.683,0.05,0.12,0.04,0.13
7.693,0.03,0.09,-0.03,0.10
7.703,-0.01,0.09,-0.04,0.10
7.713,-0.08,0.06,0.09,0.13
7.723,-0.08,0.06,0.17,0.20
7.733,-0.10,0.09,0.05,0.14
7.743,-0.08,0.08,-0.02,0.12
7.753,-0.09,0.05,0.08,0.13
7.763,-0.10,0.04,0.29,0.31
7.773,-0.05,0.09,0.22,0.24
7.783,0.02,0.07,-0.04,0.09
7.793,0.06,0.07,-0.10,0.14
7.803,0.07,0.08,-0.00,0.10
7.813,0.05,0.07,0.12,0.15
7.823,0.07,0.03,0.11,0.13
7.833,0.06,0.02,0.02,0.07
7.843,0.06,0.02,-0.05,0.08
7.853,0.04,0.04,-0.03,0.06
7.863,0.02,0.04,0.09,0.11
7.873,-0.03,0.01,0.21,0.21
7.883,-0.02,-0.03,0.19,0.19
7.893,0.01,-0.06,0.03,0.07
7.903,-0.02,-0.03,-0.10,0.11
7.913,0.02,0.01,-0.08,0.08
7.923,0.05,0.04,0.01,0.06
7.933,0.05,0.01,0.11,0.12
7.943,-0.00,-0.00,0.20,0.20
7.953,-0.05,-0.01,0.31,0.32
7.963,-0.07,-0.03,0.30,0.31
7.973,-0.10,0.01,0.14,0.17
7.983,-0.10,0.04,0.06,0.12
7.993,-0.07,0.04,0.04,0.09
8.003,-0.04,0.04,-0.01,0.06
8.013,-0.00,0.04,-0.03,0.05
8.023,0.04,0.05,-0.01,0.06
8.033,0.05,0.05,0.03,0.08
8.043,0.03,0.08,0.11,0.14
8.052,0.02,0.06,0.09,0.12
8.062,-0.02,0.05,0.05,0.08
8.072,-0.09,0.04,0.11,0.14
8.082,-0.10,0.02,0.08,0.13
8.092,-0.08,0.05,0.07,0.12
8.102,-0.03,0.09,0.08,0.12
8.112,-0.05,0.10,-0.06,0.12
8.122,-0.00,0.14,-0.08,0.16
8.132,0.04,0.16,0.00,0.16
8.142,0.08,0.18,0.08,0.21
8.152,0.08,0.20,0.05,0.22
8.162,0.08,0.20,0.05,0.22
8.172,0.09,0.22,0.14,0.27
8.182,0.09,0.22,0.17,0.29
8.192,0.09,0.21,0.17,0.29
8.202,0.07,0.20,0.18,0.28
8.212,0.03,0.17,0.15,0.23
8.222,0.05,0.14,0.27,0.31
8.232,-0.00,0.11,0.13,0.16
8.242,0.00,0.09,0.01,0.09
8.252,0.01,0.09,-0.01,0.09
8.262,0.01,0.07,-0.00,0.07
8.272,0.01,0.04,0.03,0.05
8.282,0.04,-0.01,0.13,0.13
8.292,-0.03,-0.05,0.05,0.07
8.302,-0.08,-0.12,-0.03,0.14
8.312,-0.08,-0.20,0.00,0.22
8.322,-0.04,-0.25,0.14,0.29
8.332,-0.19,-0.23,-0.16,0.34
8.342,-0.19,-0.22,-0.21,0.35
8.352,-0.15,-0.26,-0.08,0.31
8.362,-0.16,-0.24,0.03,0.29
8.372,-0.15,-0.20,0.04,0.25
8.382,-0.13,-0.17,-0.01,0.22
8.392,-0.11,-0.19,-0.04,0.22
8.402,-0.09,-0.15,-0.01,0.18
8.412,-0.08,-0.08,0.10,0.15
8.422,-0.04,-0.03,0.09,0.10
8.432,-0.01,-0.01,0.00,0.02
8.442,-0.01,-0.00,-0.04,0.05
8.452,-0.03,0.03,-0.01,0.05
8.462,-0.05,0.05,0.08,0.11
8.472,-0.09,0.07,0.15,0.18
8.482,-0.12,0.09,0.12,0.19
8.492,-0.11,0.11,0.08,0.18
8.501,-0.05,0.18,0.08,0.20
8.511,0.00,0.20,0.13,0.24
8.521,-0.00,0.20,0.09,0.22
8.531,0.00,0.20,0.08,0.22
8.541,0.03,0.20,0.12,0.23
8.551,0.04,0.20,0.15,0.25
8.561,0.03,0.23,0.14,0.27
8.571,0.04,0.23,0.16,0.28
8.581,0.04,0.22,0.17,0.28
8.591,0.04,0.22,0.13,0.26
8.601,0.05,0.21,0.11,0.24
8.611,0.06,0.21,0.19,0.28
8.621,0.06,0.18,0.21,0.28
8.631,0.07,0.13,0.09,0.17
8.641,0.07,0.13,0.06,0.15
8.651,0.03,0.13,0.11,0.17
8.661,0.02,0.13,0.09,0.17
8.671,0.00,0.10,0.01,0.10
8.681,-0.06,0.08,0.01,0.10
8.691,-0.08,0.06,0.07,0.12
8.701,-0.10,0.02,0.12,0.15
8.711,-0.11,-0.00,0.10,0.15
8.721,-0.12,-0.04,0.07,0.14
8.731,-0.15,-0.06,0.06,0.17
8.741,-0.16,-0.07,0.06,0.18
8.751,-0.17,-0.06,0.04,0.18
8.761,-0.18,-0.06,0.08,0.20
8.771,-0.15,-0.04,0.07,0.17
8.781,-0.10,-0.02,0.04,0.11
8.791,-0.05,-0.04,0.07,0.09
8.801,-0.03,-0.06,0.10,0.12
8.811,-0.06,-0.06,0.08,0.12
8.821,-0.07,-0.07,0.04,0.10
8.831,-0.10,-0.07,0.00,0.12
8.841,-0.12,-0.07,0.04,0.15
8.851,-0.15,-0.05,0.05,0.16
8.861,-0.15,-0.04,0.05,0.16
8.871,-0.12,-0.01,0.10,0.16
8.881,-0.12,0.02,0.07,0.14
8.891,-0.09,0.06,0.01,0.11
8.901,-0.05,0.07,0.00,0.09
8.911,-0.03,0.09,-0.00,0.10
8.921,-0.02,0.13,0.01,0.13
8.931,-0.01,0.16,0.06,0.18
8.941,0.01,0.18,0.07,0.19
8.951,-0.01,0.18,0.03,0.18
8.960,-0.05,0.16,0.10,0.19
8.971,-0.08,0.14,0.16,0.23
8.980,-0.12,0.13,0.15,0.23
8.990,-0.12,0.14,0.16,0.24
9.000,-0.11,0.12,0.19,0.26
9.010,-0.12,0.15,0.10,0.21
9.020,-0.07,0.19,0.05,0.21
9.030,-0.01,0.17,0.07,0.19
9.040,0.01,0.14,0.11,0.18
9.050,-0.00,0.10,0.11,0.15
9.060,0.02,0.09,0.06,0.11
9.070,0.05,0.07,-0.00,0.08
9.080,0.05,0.04,-0.04,0.07
9.090,0.02,0.02,-0.01,0.03
9.100,0.01,0.01,-0.00,0.01
9.110,-0.03,0.00,0.01,0.03
9.120,-0.06,0.02,0.04,0.07
9.130,-0.04,0.04,0.04,0.07
9.140,-0.05,0.05,0.06,0.10
9.150,-0.08,0.06,0.10,0.14
9.160,-0.06,0.05,0.13,0.16
9.170,-0.03,0.08,0.09,0.13
9.180,0.00,0.09,0.01,0.09
9.190,0.01,0.08,0.00,0.09
9.200,0.03,0.08,0.08,0.12
9.210,0.02,0.07,0.11,0.13
9.220,-0.00,0.07,0.05,0.08
9.230,0.02,0.08,0.04,0.09
9.240,0.03,0.09,0.04,0.10
9.250,0.01,0.09,0.06,0.11
9.260,-0.01,0.05,0.11,0.12
9.270,-0.03,0.04,0.16,0.17
9.280,-0.06,0.05,0.16,0.18
9.290,-0.06,0.07,0.08,0.12
9.300,-0.03,0.06,0.01,0.07
9.310,-0.02,0.05,0.02,0.06
9.320,-0.00,0.08,0.08,0.12
9.330,0.01,0.07,0.10,0.13
9.340,0.02,0.05,0.08,0.10
9.350,0.00,0.04,0.04,0.06
9.360,-0.00,0.04,0.02,0.04
9.370,-0.00,0.04,0.03,0.05
9.380,-0.02,0.04,0.03,0.06
9.390,-0.04,0.05,0.11,0.13
9.400,-0.05,0.07,0.10,0.13
9.410,-0.03,0.06,0.02,0.07
9.419,0.00,0.07,-0.02,0.08
9.429,-0.00,0.08,0.10,0.12
9.439,-0.02,0.08,0.17,0.19
9.449,-0.06,0.06,0.06,0.10
9.459,-0.05,0.05,-0.03,0.08
9.470,-0.03,0.10,-0.01,0.10
9.479,0.01,0.11,0.15,0.19
9.489,0.04,0.06,0.23,0.24
9.499,0.03,0.02,0.06,0.07
9.509,0.03,0.02,-0.07,0.08
9.519,0.05,0.02,-0.07,0.09
9.529,0.04,0.04,-0.00,0.06
9.539,0.02,0.06,0.07,0.10
9.549,-0.08,0.05,0.20,0.22
9.559,-0.14,0.03,0.34,0.37
9.569,-0.11,0.04,0.21,0.24
9.579,-0.05,0.05,-0.01,0.07
9.589,0.03,0.06,-0.10,0.12
9.599,0.05,0.05,-0.08,0.10
9.609,0.04,0.05,0.01,0.06
9.619,-0.00,0.05,0.05,0.07
9.629,-0.04,0.02,0.08,0.09
9.639,-0.04,0.01,0.07,0.08
9.649,-0.08,0.05,-0.03,0.10
9.659,-0.06,0.05,-0.08,0.11
9.669,-0.04,0.05,-0.02,0.07
9.679,-0.04,0.09,0.05,0.11
9.689,-0.05,0.12,0.20,0.24
9.699,-0.09,0.10,0.32,0.35
9.709,-0.07,0.11,0.18,0.22
9.719,-0.03,0.11,0.01,0.12
9.729,0.00,0.14,-0.01,0.14
9.739,-0.01,0.13,0.04,0.13
9.749,-0.00,0.12,0.10,0.16
9.759,0.01,0.09,0.16,0.19
9.769,0.01,0.06,0.15,0.16
9.779,-0.01,0.04,0.03,0.05
9.789,0.00,0.06,-0.01,0.06
9.799,0.00,0.07,0.01,0.07
9.809,-0.01,0.07,0.05,0.09
9.819,-0.02,0.07,0.07,0.10
9.829,-0.02,0.06,0.05,0.08
9.838,-0.07,0.06,0.06,0.11
9.849,-0.08,0.09,0.07,0.13
9.859,-0.04,0.10,0.08,0.14
9.868,-0.02,0.12,0.07,0.14
9.879,-0.06,0.09,0.06,0.12
9.888,-0.07,0.09,0.06,0.13
9.898,-0.09,0.08,0.12,0.17
9.908,-0.07,0.06,0.17,0.19
9.918,-0.05,0.06,0.06,0.10
9.928,-0.04,0.06,-0.05,0.09
9.938,0.00,0.06,-0.04,0.07
9.948,0.01,0.05,0.06,0.08
9.958,0.01,0.05,0.08,0.09
9.968,-0.04,0.08,-0.02,0.09
9.978,-0.03,0.09,-0.04,0.10
9.988,-0.05,0.12,0.04,0.14
9.998,-0.07,0.09,0.22,0.25
10.008,-0.09,0.06,0.36,0.38
10.018,-0.02,0.07,0.20,0.22
10.028,0.00,0.07,-0.01,0.08
10.038,0.06,0.09,-0.01,0.11
10.048,0.07,0.13,0.05,0.16
10.058,0.04,0.15,0.11,0.19
10.068,-0.02,0.12,0.16,0.20
10.078,-0.11,0.07,0.21,0.25
10.088,-0.12,0.04,0.18,0.22
10.098,-0.17,0.05,-0.01,0.18
10.108,-0.11,0.07,-0.06,0.14
10.118,-0.06,0.05,-0.04,0.09
10.128,-0.02,0.05,0.01,0.06
10.138,-0.00,0.03,-0.02,0.04
10.148,0.03,0.01,-0.05,0.06
10.158,0.02,-0.01,0.03,0.03
10.168,-0.02,-0.01,0.13,0.13
10.178,-0.02,-0.01,0.08,0.09
10.188,-0.02,0.01,-0.02,0.03
10.198,0.00,0.05,-0.03,0.06
10.208,0.03,0.08,0.02,0.08
10.218,0.06,0.05,0.14,0.16
10.228,0.08,0.06,0.19,0.22
10.238,0.04,0.05,0.15,0.16
10.248,-0.01,0.03,0.13,0.14
10.258,-0.05,0.02,0.14,0.15
10.268,-0.09,0.04,0.06,0.11
10.278,-0.09,0.04,0.05,0.11
10.288,-0.08,0.05,0.12,0.16
10.298,-0.06,0.07,0.13,0.16
10.308,-0.02,0.08,0.09,0.13
10.318,0.01,0.08,-0.01,0.08
10.328,-0.00,0.08,-0.08,0.11
10.337,-0.03,0.07,-0.05,0.09
10.348,-0.07,0.07,0.07,0.12
10.357,-0.07,0.04,0.08,0.11
10.367,-0.07,0.04,-0.02,0.08
10.377,-0.04,0.07,-0.04,0.09
10.387,-0.03,0.05,0.09,0.11
10.397,-0.04,0.04,0.14,0.15
10.407,-0.05,0.03,0.02,0.06
10.417,-0.03,0.02,-0.02,0.04
10.427,-0.04,0.05,0.08,0.10
10.437,-0.07,0.07,0.29,0.31
10.447,-0.07,0.07,0.28,0.29
10.457,-0.07,0.10,0.03,0.12
10.467,-0.02,0.12,-0.05,0.13
10.477,-0.02,0.11,-0.00,0.11
10.487,-0.03,0.13,0.04,0.13
10.497,-0.02,0.11,0.25,0.27
10.507,-0.01,0.06,0.28,0.29
10.517,-0.06,0.03,-0.04,0.08
10.527,-0.03,0.03,-0.19,0.20
10.537,-0.02,0.04,-0.14,0.14
10.547,-0.02,0.06,-0.05,0.09
10.557,-0.04,0.08,-0.03,0.09
10.567,-0.05,0.08,0.06,0.11
10.577,-0.10,0.06,0.20,0.23
10.587,-0.11,0.05,0.21,0.24
10.597,-0.08,0.05,0.09,0.13
10.607,-0.04,0.07,-0.03,0.08
10.617,-0.01,0.05,0.03,0.06
10.627,-0.02,0.06,0.20,0.21
10.637,-0.00,0.07,0.25,0.26
10.647,0.05,0.07,0.17,0.19
10.657,0.03,0.06,0.04,0.07
10.667,0.02,0.07,-0.03,0.08
10.677,0.04,0.10,-0.02,0.11
10.687,0.02,0.11,0.01,0.12
10.697,-0.01,0.13,0.12,0.18
10.707,-0.05,0.12,0.17,0.22
10.717,-0.06,0.11,0.12,0.18
10.727,-0.08,0.11,0.07,0.16
10.737,-0.07,0.14,0.04,0.16
10.747,-0.05,0.17,0.08,0.19
10.757,-0.08,0.12,0.16,0.22
10.767,-0.15,0.09,0.17,0.25
10.777,-0.10,-0.04,0.16,0.19
10.787,-0.07,-0.08,-0.02,0.11
10.796,-0.07,-0.02,-0.07,0.10
10.806,-0.02,0.03,-0.01,0.04
10.816,0.02,0.04,0.05,0.07
10.826,0.03,0.05,0.07,0.09
10.836,0.03,0.05,0.01,0.06
10.846,0.01,0.09,0.01,0.09
10.856,-0.02,0.08,0.16,0.18
10.866,-0.01,0.04,0.30,0.31
10.876,-0.02,-0.02,0.08,0.08
10.886,0.02,-0.05,-0.07,0.09
10.896,0.03,-0.01,-0.09,0.10
10.906,0.04,0.06,-0.05,0.09
10.916,0.06,0.11,0.05,0.14
10.926,0.00,0.12,0.22,0.25
10.936,-0.04,0.10,0.23,0.25
10.946,-0.04,0.08,0.05,0.10
10.956,-0.04,0.10,-0.02,0.11
10.966,-0.02,0.13,0.02,0.14
10.976,-0.01,0.11,0.07,0.13
10.986,-0.03,0.07,0.15,0.17
10.996,-0.06,0.05,0.19,0.20
11.006,-0.09,0.00,0.12,0.15
11.016,-0.07,-0.03,0.07,0.10
11.026,-0.05,-0.01,0.03,0.06
11.036,-0.03,0.02,0.04,0.06
11.046,0.01,0.03,0.10,0.10
11.056,0.04,0.00,0.07,0.08
11.066,0.02,-0.03,-0.05,0.06
11.076,0.01,-0.00,-0.09,0.09
11.086,0.02,0.06,-0.04,0.07
11.096,0.02,0.06,0.07,0.09
11.106,-0.02,0.06,0.08,0.10
11.116,-0.04,0.04,0.07,0.09
11.126,-0.06,0.04,0.13,0.15
11.136,-0.06,0.06,0.13,0.16
11.146,-0.05,0.07,0.07,0.11
11.156,-0.05,0.07,0.11,0.14
11.166,-0.03,0.08,0.16,0.18
11.176,-0.03,0.08,0.10,0.13
11.186,-0.03,0.10,0.03,0.11
11.196,-0.02,0.11,0.07,0.13
11.206,-0.03,0.12,0.06,0.14
11.216,-0.03,0.08,0.08,0.12
11.226,-0.02,0.07,0.11,0.13
11.235,-0.03,0.04,0.07,0.08
11.245,-0.03,0.04,-0.03,0.06
11.255,-0.02,0.04,-0.02,0.05
11.265,-0.01,0.06,0.06,0.08
11.275,0.00,0.05,0.09,0.11
11.285,-0.03,0.06,0.04,0.08
11.295,-0.06,0.06,0.08,0.11
11.305,-0.07,0.07,0.11,0.15
11.315,-0.08,0.06,0.11,0.15
11.325,-0.08,0.05,0.10,0.14
11.335,-0.07,0.05,0.11,0.14
11.345,-0.05,0.04,0.07,0.10
11.355,-0.01,0.06,0.02,0.06
11.365,-0.00,0.08,0.07,0.10
11.375,0.01,0.09,0.13,0.15
11.385,-0.03,0.07,0.05,0.09
11.395,-0.06,0.05,0.02,0.08
11.405,-0.06,0.03,0.11,0.13
11.415,-0.09,0.03,0.14,0.17
11.425,-0.09,0.04,0.07,0.12
11.435,-0.06,0.04,-0.00,0.07
11.445,0.00,0.09,0.01,0.09
11.455,0.02,0.08,0.11,0.14
11.465,0.06,0.08,0.13,0.16
11.475,0.06,0.09,-0.01,0.11
11.485,0.06,0.07,-0.08,0.12
11.495,0.05,0.04,0.00,0.06
11.505,0.01,0.01,0.11,0.11
11.515,-0.01,-0.01,0.10,0.10
11.525,-0.02,-0.05,-0.03,0.06
11.535,-0.02,-0.04,-0.06,0.08
11.545,-0.00,0.00,-0.02,0.02
11.555,0.01,0.04,0.04,0.06
11.565,-0.01,0.05,0.11,0.12
11.575,-0.07,0.06,0.14,0.17
11.585,-0.05,0.04,0.18,0.19
11.595,-0.05,0.09,0.10,0.15
11.605,-0.05,0.14,0.00,0.15
11.615,0.01,0.14,0.02,0.15
11.625,0.02,0.14,0.09,0.16
11.635,-0.00,0.10,0.15,0.18
11.645,-0.02,0.07,0.11,0.13
11.654,-0.11,0.04,0.07,0.13
11.665,-0.14,0.04,0.05,0.15
11.675,-0.14,0.02,0.07,0.16
11.685,-0.12,0.04,0.07,0.15
11.695,-0.08,0.08,0.03,0.12
11.705,-0.07,0.09,-0.01,0.11
11.714,-0.04,0.09,0.05,0.10
11.724,-0.03,0.08,0.09,0.13
11.734,-0.08,0.02,0.16,0.18
11.745,-0.10,0.00,0.21,0.23
11.754,-0.11,0.03,0.10,0.15
11.764,-0.09,0.05,0.08,0.13
11.774,-0.09,0.03,0.12,0.15
11.784,-0.06,0.01,0.10,0.12
11.794,-0.06,0.03,0.04,0.07
11.804,-0.05,0.05,-0.03,0.08
11.814,-0.04,0.06,0.00,0.07
11.824,-0.02,0.05,0.06,0.08
11.834,-0.03,0.04,0.02,0.06
11.844,-0.08,0.03,-0.04,0.09
11.854,-0.09,0.02,0.02,0.10
11.864,-0.10,0.05,0.12,0.16
11.874,-0.11,0.05,0.16,0.20
11.884,-0.10,0.06,0.15,0.19
11.894,-0.09,0.08,0.10,0.16
11.904,-0.03,0.11,0.15,0.19
11.914,0.01,0.13,0.17,0.21
11.924,0.03,0.10,0.16,0.19
11.934,0.02,0.05,0.13,0.14
11.944,-0.03,0.06,0.02,0.07
11.954,-0.04,0.07,-0.02,0.09
11.964,-0.08,0.05,0.01,0.10
11.974,-0.12,0.01,0.03,0.12
11.984,-0.14,-0.01,0.03,0.14
11.994,-0.14,-0.03,-0.01,0.14
12.004,-0.11,-0.01,-0.04,0.12
12.014,-0.07,0.00,-0.02,0.08
12.024,-0.05,0.05,0.01,0.07
12.034,-0.06,0.09,0.03,0.11
12.044,-0.04,0.11,0.12,0.17
12.054,-0.04,0.12,0.17,0.22
12.064,-0.06,0.11,0.11,0.17
12.074,-0.04,0.08,0.07,0.11
12.084,-0.03,0.09,0.08,0.12
12.094,-0.00,0.09,0.12,0.15
12.104,0.02,0.08,0.13,0.15
12.114,0.02,0.07,0.10,0.12
12.124,0.04,0.08,0.08,0.12
12.134,0.02,0.07,0.07,0.10
12.144,0.03,0.04,0.03,0.06
12.154,0.01,0.03,0.01,0.03
12.164,-0.01,0.03,0.02,0.04
12.173,-0.01,0.04,0.10,0.11
12.183,-0.03,0.03,0.13,0.14
12.194,-0.04,0.01,0.13,0.13
12.203,-0.07,0.02,0.09,0.11
12.214,-0.05,0.02,0.07,0.09
12.224,-0.03,0.04,0.02,0.05
12.233,-0.00,0.04,0.07,0.08
12.244,0.03,0.04,0.08,0.09
12.253,0.05,0.05,0.03,0.08
12.263,0.04,0.05,-0.01,0.06
12.273,0.01,0.05,0.05,0.07
12.283,0.00,0.08,0.11,0.14
12.293,-0.00,0.09,0.08,0.12
12.303,-0.00,0.06,0.04,0.08
12.313,-0.00,0.07,0.03,0.08
12.323,-0.01,0.06,0.05,0.08
12.333,-0.02,0.05,0.05,0.08
12.343,-0.02,0.06,0.08,0.10
12.353,-0.01,0.07,0.05,0.09
12.363,-0.01,0.08,0.02,0.08
12.373,0.02,0.06,0.02,0.07
12.383,0.04,0.07,0.09,0.12
12.393,0.04,0.08,0.11,0.15
12.403,0.00,0.06,0.09,0.11
12.413,-0.03,0.05,0.10,0.12
12.423,-0.06,0.04,0.13,0.15
12.433,-0.06,0.06,0.06,0.10
12.443,-0.04,0.07,0.03,0.09
12.453,-0.02,0.09,0.08,0.12
12.463,-0.02,0.08,0.07,0.11
12.473,-0.03,0.08,0.06,0.11
12.483,-0.02,0.08,0.09,0.13
12.493,-0.03,0.08,0.10,0.13
12.503,-0.06,0.06,0.08,0.11
12.513,-0.03,0.06,0.02,0.07
12.523,-0.02,0.05,-0.01,0.05
12.533,-0.01,0.03,0.03,0.04
12.543,-0.04,0.03,0.10,0.11
12.553,-0.07,0.02,0.14,0.16
12.563,-0.11,0.01,0.08,0.14
12.572,-0.11,0.04,0.07,0.14
12.583,-0.11,0.05,0.18,0.21
12.593,-0.10,0.05,0.17,0.21
12.603,-0.07,0.05,0.05,0.10
12.612,-0.02,0.06,0.07,0.10
12.623,-0.01,0.06,0.15,0.16
12.633,-0.00,0.05,0.03,0.05
12.643,0.01,0.02,-0.11,0.12
12.652,0.03,0.00,-0.11,0.11
12.662,0.01,0.02,0.05,0.05
12.673,-0.02,0.03,0.09,0.09
12.682,-0.05,0.04,-0.04,0.07
12.693,-0.03,0.05,-0.07,0.09
12.702,-0.05,0.11,0.02,0.12
12.712,-0.08,0.12,0.19,0.24
12.722,-0.12,0.10,0.20,0.26
12.732,-0.12,0.06,0.13,0.18
12.742,-0.10,0.06,0.06,0.13
12.752,-0.05,0.11,0.04,0.13
12.762,-0.02,0.14,0.05,0.14
12.772,-0.02,0.12,0.09,0.15
12.782,0.01,0.09,0.17,0.19
12.792,0.03,0.06,0.11,0.13
12.802,0.02,0.04,-0.04,0.06
12.812,0.01,0.03,-0.02,0.04
12.822,-0.03,0.03,0.07,0.08
12.832,-0.05,0.01,0.07,0.08
12.842,-0.05,-0.00,0.04,0.06
12.852,-0.05,0.01,0.05,0.07
12.862,-0.04,0.01,0.06,0.08
12.872,-0.02,0.03,0.01,0.04
12.882,0.03,0.07,-0.00,0.08
12.892,0.02,0.09,0.05,0.11
12.902,0.02,0.10,0.14,0.18
12.912,0.01,0.09,0.13,0.16
12.922,-0.01,0.07,0.02,0.07
12.932,-0.02,0.07,0.06,0.09
12.942,-0.04,0.08,0.14,0.17
12.952,-0.06,0.05,0.12,0.15
12.962,-0.05,0.04,0.06,0.08
12.972,-0.02,0.03,0.09,0.10
12.982,-0.04,0.05,0.10,0.12
12.992,-0.05,0.03,0.03,0.06
13.002,-0.03,0.04,-0.00,0.05
13.012,-0.04,0.07,0.00,0.09
13.022,-0.02,0.10,0.03,0.11
13.032,-0.02,0.10,0.09,0.14
13.041,-0.03,0.09,0.11,0.15
13.051,-0.02,0.07,0.05,0.09
13.061,-0.02,0.06,0.04,0.08
13.071,-0.01,0.08,0.08,0.11
13.081,-0.00,0.08,0.10,0.13
13.091,-0.00,0.07,0.07,0.09
13.101,-0.02,0.07,0.10,0.12
13.111,-0.01,0.08,0.14,0.16
13.121,-0.03,0.09,0.09,0.13
13.131,-0.05,0.08,0.04,0.10
13.141,-0.04,0.05,0.05,0.08
13.151,-0.04,0.05,0.05,0.08
13.161,-0.03,0.05,0.05,0.08
13.171,-0.05,0.05,0.12,0.14
13.181,-0.05,0.04,0.12,0.13
13.191,-0.05,0.04,-0.01,0.06
13.201,-0.02,0.06,-0.03,0.07
13.211,-0.01,0.06,0.10,0.12
13.221,-0.01,0.06,0.08,0.11
13.231,-0.03,0.05,-0.02,0.06
13.241,-0.03,0.05,0.01,0.06
13.251,-0.06,0.05,0.15,0.17
13.261,-0.07,0.03,0.16,0.18
13.271,-0.09,0.02,0.03,0.10
13.281,-0.05,0.06,0.02,0.08
13.291,-0.03,0.11,0.10,0.15
13.301,0.02,0.11,0.12,0.16
13.311,0.04,0.06,0.07,0.10
13.321,0.02,0.01,0.03,0.04
13.331,-0.01,0.01,0.05,0.05
13.341,-0.05,0.00,0.14,0.15
13.351,-0.06,-0.00,0.18,0.19
13.361,-0.08,-0.01,0.07,0.11
13.371,-0.09,-0.02,0.02,0.09
13.381,-0.09,0.02,0.08,0.12
13.391,-0.04,0.04,0.13,0.14
13.401,0.00,0.05,0.07,0.09
13.411,0.01,0.05,0.02,0.06
13.421,0.01,0.02,0.03,0.04
13.431,-0.02,0.03,0.03,0.05
13.441,-0.02,0.04,0.06,0.07
13.451,-0.03,0.03,0.01,0.04
13.461,-0.06,0.03,0.00,0.07
13.471,-0.05,0.07,0.06,0.10
13.481,-0.08,0.07,0.06,0.12
13.491,-0.07,0.08,0.05,0.12
13.501,-0.06,0.08,0.12,0.16
13.511,-0.07,0.09,0.12,0.16
13.520,-0.05,0.09,0.09,0.13
13.530,-0.03,0.10,0.10,0.14
13.541,-0.03,0.07,0.10,0.12
13.550,-0.05,0.06,0.14,0.16
13.561,-0.02,0.06,0.02,0.06
13.570,0.01,-0.01,0.07,0.07
13.580,0.02,0.02,0.03,0.04
13.590,-0.02,0.04,0.01,0.04
13.600,-0.00,0.03,0.01,0.04
13.610,-0.00,0.04,0.04,0.06
13.620,-0.00,0.07,0.09,0.11
13.630,-0.02,0.08,0.11,0.14
13.640,-0.02,0.06,0.06,0.09
13.650,-0.03,0.08,0.07,0.11
13.660,-0.07,0.06,0.12,0.15
13.670,-0.05,0.07,0.13,0.15
13.680,-0.05,0.07,0.09,0.12
13.690,-0.04,0.07,0.07,0.11
13.700,-0.03,0.07,0.08,0.11
13.710,0.00,0.06,0.08,0.10
13.720,0.00,0.06,0.04,0.08
13.730,-0.02,0.06,0.02,0.06
13.740,-0.02,0.05,0.00,0.05
13.750,-0.05,0.02,0.03,0.06
13.760,-0.08,0.03,0.08,0.11
13.770,-0.07,0.03,0.05,0.09
13.780,-0.06,0.03,0.02,0.07
13.790,-0.05,0.04,0.06,0.09
13.800,-0.02,0.06,0.10,0.12
13.810,-0.03,0.04,0.07,0.09
13.820,-0.01,0.01,0.07,0.07
13.830,-0.01,0.01,0.08,0.08
13.840,-0.02,0.03,0.03,0.05
13.850,-0.01,0.03,0.02,0.04
13.860,0.00,0.07,0.04,0.08
13.870,0.02,0.09,0.07,0.11
13.880,0.02,0.07,0.05,0.09
13.890,0.00,0.07,0.09,0.11
13.900,-0.03,0.07,0.10,0.12
13.910,-0.04,0.06,0.06,0.09
13.920,-0.04,0.06,0.01,0.07
13.930,-0.06,0.05,0.10,0.12
13.940,-0.06,0.05,0.19,0.21
13.950,-0.04,0.07,0.05,0.10
13.959,-0.02,0.07,-0.05,0.09
13.970,-0.02,0.06,-0.03,0.06
13.980,-0.04,0.06,0.16,0.17
13.990,-0.06,0.07,0.21,0.23
14.000,-0.03,0.05,0.02,0.07
14.010,-0.01,0.06,-0.06,0.08
14.020,-0.02,0.05,-0.00,0.06
14.029,-0.02,0.08,0.06,0.11
14.039,-0.03,0.07,0.20,0.22
14.049,-0.04,0.04,0.16,0.17
14.059,-0.03,0.07,-0.01,0.07
14.069,0.02,0.08,-0.07,0.10
14.079,0.04,0.07,-0.04,0.09
14.089,0.04,0.07,0.04,0.09
14.099,0.03,0.05,0.16,0.17
14.109,-0.05,0.03,0.29,0.29
14.119,-0.12,-0.01,0.16,0.20
14.129,-0.16,-0.02,0.01,0.16
14.139,-0.12,0.01,-0.01,0.12
14.149,-0.09,0.04,0.01,0.09
14.159,-0.04,0.08,0.05,0.10
14.169,-0.03,0.05,0.17,0.18
14.179,-0.04,0.01,0.22,0.23
14.189,-0.03,0.02,0.02,0.04
14.199,0.01,0.02,-0.16,0.16
14.209,0.01,0.04,-0.13,0.14
14.219,-0.01,0.07,-0.02,0.07
14.229,-0.03,0.08,0.07,0.11
14.239,-0.04,0.10,0.15,0.18
14.249,-0.07,0.08,0.14,0.17
14.259,-0.07,0.09,0.10,0.15
14.269,-0.09,0.10,0.11,0.17
14.279,-0.08,0.11,0.14,0.19
14.289,-0.05,0.10,0.17,0.21
14.299,-0.04,0.10,0.16,0.19
14.309,-0.00,0.10,0.09,0.13
14.319,0.00,0.10,-0.02,0.10
14.329,0.00,0.09,-0.04,0.09
14.339,0.01,0.07,0.01,0.08
14.349,-0.01,0.06,0.08,0.10
14.359,-0.04,0.03,0.10,0.12
14.369,-0.05,-0.00,-0.01,0.05
14.379,-0.05,0.00,-0.06,0.08
14.389,-0.04,0.04,0.00,0.06
14.399,-0.05,0.07,0.13,0.16
14.409,-0.05,0.05,0.27,0.28
14.419,-0.06,0.05,0.11,0.13
14.429,-0.04,0.05,-0.03,0.07
14.439,-0.01,0.06,-0.00,0.06
14.449,-0.01,0.06,0.03,0.07
14.459,-0.00,0.07,0.05,0.08
14.468,-0.01,0.07,0.13,0.15
14.478,-0.04,0.07,0.18,0.20
14.488,-0.05,0.06,0.07,0.10
14.498,-0.04,0.04,-0.01,0.05
14.508,-0.06,0.04,0.02,0.07
14.518,-0.04,0.08,0.10,0.13
14.528,-0.05,0.08,0.18,0.20
14.538,-0.00,0.03,0.14,0.14
14.548,-0.01,0.03,-0.01,0.03
14.558,-0.03,0.04,-0.04,0.06
14.568,-0.00,0.05,0.00,0.05
14.578,-0.03,0.06,0.07,0.09
14.588,-0.07,0.05,0.12,0.15
14.598,-0.05,0.03,0.10,0.11
14.608,-0.05,0.02,0.02,0.06
14.618,-0.07,0.04,0.03,0.08
14.628,-0.07,0.05,0.12,0.14
14.638,-0.05,0.04,0.17,0.18
14.648,0.00,0.05,0.06,0.08
14.658,0.02,0.07,-0.01,0.07
14.668,0.01,0.06,-0.01,0.06
14.678,0.01,0.05,0.02,0.06
14.688,-0.02,0.04,0.10,0.11
14.698,-0.04,0.04,0.13,0.14
14.708,-0.06,0.04,0.05,0.09
14.718,-0.05,0.08,0.01,0.10
14.728,-0.06,0.10,0.05,0.13
14.738,-0.05,0.09,0.10,0.14
14.748,-0.05,0.08,0.12,0.15
14.758,-0.05,0.07,0.11,0.14
14.768,-0.04,0.09,0.04,0.11
14.778,-0.01,0.10,0.05,0.11
14.788,0.01,0.09,0.05,0.11
14.798,-0.01,0.07,0.04,0.08
14.808,-0.04,0.03,0.11,0.12
14.818,-0.07,0.03,0.09,0.12
14.828,-0.05,0.06,0.05,0.10
14.838,-0.04,0.08,0.04,0.10
14.848,0.00,0.10,0.01,0.10
14.858,0.04,0.10,0.02,0.11
14.868,0.03,0.06,0.11,0.13
14.878,0.01,0.02,0.13,0.14
14.887,-0.04,-0.01,0.05,0.07
14.898,-0.07,-0.00,0.03,0.08
14.908,-0.10,0.00,0.10,0.14
14.918,-0.11,0.00,0.15,0.18
14.928,-0.11,-0.00,0.06,0.13
14.937,-0.07,0.01,0.06,0.10
14.947,-0.04,0.04,0.09,0.10
14.958,-0.02,0.05,0.05,0.07
14.967,0.01,0.05,-0.02,0.05
14.977,0.02,0.04,-0.01,0.04
14.987,0.02,0.02,0.07,0.08
14.997,-0.02,0.01,0.02,0.03
15.007,-0.05,0.01,-0.02,0.06
15.017,-0.06,0.03,0.09,0.11
15.027,-0.08,0.03,0.19,0.21
15.037,-0.08,0.04,0.10,0.13
15.047,-0.05,0.06,-0.01,0.08
15.057,-0.04,0.08,0.04,0.09
15.067,-0.03,0.08,0.13,0.16
15.077,-0.03,0.09,0.08,0.13
15.087,-0.03,0.10,0.00,0.10
15.097,-0.03,0.12,0.04,0.13
15.107,-0.02,0.10,0.12,0.16
15.117,-0.00,0.08,0.08,0.11
15.127,-0.01,0.04,0.05,0.06
15.137,-0.02,0.01,0.09,0.09
15.147,-0.03,0.01,0.06,0.07
15.157,-0.03,0.02,0.02,0.04
15.167,-0.04,0.02,0.04,0.06
15.177,-0.02,0.04,0.09,0.10
15.187,-0.02,0.04,0.09,0.10
15.197,-0.03,0.05,0.02,0.06
15.207,-0.03,0.06,0.00,0.07
15.217,-0.04,0.08,0.09,0.12
15.227,-0.04,0.09,0.11,0.15
15.237,-0.03,0.08,0.01,0.09
15.247,-0.03,0.07,-0.01,0.08
15.257,-0.04,0.07,0.15,0.17
15.267,-0.00,0.08,0.21,0.23
15.277,-0.03,0.07,0.02,0.07
15.287,-0.02,0.06,-0.03,0.07
15.297,-0.02,0.06,0.04,0.08
15.307,-0.05,0.05,0.18,0.19
15.317,-0.06,0.05,0.14,0.16
15.327,-0.05,0.05,0.02,0.07
15.337,-0.04,0.06,-0.01,0.07
15.347,-0.04,0.09,0.06,0.12
15.357,-0.04,0.08,0.20,0.22
15.367,-0.05,0.04,0.15,0.16
15.377,-0.04,0.03,-0.00,0.05
15.386,-0.01,0.04,-0.04,0.06
15.397,0.02,0.07,0.00,0.07
15.406,0.02,0.05,0.12,0.13
15.416,-0.02,0.05,0.10,0.11
15.426,-0.01,0.02,0.03,0.04
15.436,-0.01,0.07,-0.01,0.07
15.446,-0.03,0.08,0.01,0.08
15.456,-0.03,0.08,0.13,0.16
15.466,-0.05,0.06,0.14,0.16
15.476,-0.05,0.05,0.09,0.11
15.486,-0.05,0.05,0.04,0.08
15.496,-0.04,0.08,0.02,0.10
15.506,-0.04,0.09,0.06,0.12
15.516,-0.03,0.09,0.13,0.16
15.526,-0.03,0.06,0.12,0.14
15.536,-0.04,0.04,0.05,0.08
15.546,-0.02,0.05,0.02,0.06
15.556,-0.03,0.03,0.01,0.05
15.566,-0.03,0.02,0.04,0.05
15.576,-0.06,-0.01,0.10,0.11
15.586,-0.07,-0.01,0.10,0.12
15.596,-0.08,0.03,0.09,0.12
15.606,-0.07,0.07,0.06,0.11
15.616,-0.06,0.06,0.02,0.09
15.626,-0.03,0.08,0.05,0.10
15.636,0.01,0.08,0.08,0.11
15.646,0.03,0.07,0.12,0.14
15.656,0.03,0.04,0.11,0.12
15.666,-0.03,0.00,0.05,0.06
15.676,-0.06,0.00,0.07,0.09
15.686,-0.11,0.00,0.15,0.19
15.696,-0.12,-0.03,0.15,0.19
15.706,-0.12,-0.03,0.07,0.14
15.716,-0.10,0.01,-0.01,0.10
15.726,-0.06,0.05,0.01,0.08
15.736,-0.05,0.06,0.13,0.15
15.746,-0.05,0.06,0.19,0.21
15.756,-0.02,0.03,0.04,0.05
15.766,-0.04,-0.01,-0.08,0.09
15.776,-0.01,0.02,-0.07,0.07
15.786,-0.01,0.02,-0.02,0.03
15.796,-0.02,0.07,0.08,0.11
15.806,-0.06,0.07,0.23,0.25
15.816,-0.08,0.04,0.22,0.23
15.826,-0.08,0.03,0.00,0.09
15.836,-0.06,0.05,-0.02,0.08
15.845,-0.05,0.08,0.07,0.12
15.856,-0.03,0.10,0.12,0.17
15.865,-0.02,0.13,0.12,0.18
15.875,-0.02,0.14,0.07,0.16
15.885,-0.02,0.13,0.03,0.13
15.896,-0.03,0.08,0.11,0.14
15.905,-0.04,0.03,0.21,0.21
15.915,-0.05,0.01,0.09,0.10
15.925,-0.02,-0.00,-0.03,0.04
15.935,-0.01,0.03,-0.06,0.07
15.945,-0.00,0.04,-0.01,0.04
15.955,-0.01,0.07,0.07,0.09
15.965,-0.03,0.08,0.13,0.15
15.975,-0.06,0.05,0.17,0.19
15.985,-0.06,0.07,0.10,0.13
15.995,-0.03,0.07,0.05,0.10
16.005,0.00,0.07,0.03,0.08
16.015,-0.01,0.04,0.01,0.05
16.025,-0.02,0.01,0.05,0.05
16.035,-0.01,-0.02,0.11,0.11
16.045,-0.05,0.01,0.10,0.11
16.055,-0.06,0.04,0.04,0.09
16.065,-0.06,0.06,0.04,0.09
16.075,-0.07,0.08,0.05,0.12
16.085,-0.09,0.08,0.06,0.13
16.095,-0.09,0.08,0.11,0.16
16.105,-0.10,0.08,0.14,0.19
16.115,-0.09,0.08,0.12,0.17
16.125,-0.06,0.08,0.04,0.11
16.135,-0.04,0.07,0.03,0.09
16.145,-0.04,0.04,0.06,0.09
16.155,-0.03,0.06,0.07,0.10
16.165,-0.03,0.04,0.06,0.08
16.175,-0.00,0.05,0.06,0.08
16.185,0.01,0.06,0.08,0.10
16.195,0.01,0.05,0.08,0.10
16.205,-0.01,0.04,0.06,0.07
16.215,-0.02,0.02,0.02,0.04
16.225,-0.01,0.01,0.04,0.04
16.234,-0.02,0.02,0.08,0.08
16.245,-0.01,0.03,0.07,0.08
16.255,-0.01,0.02,0.03,0.04
16.265,-0.03,-0.00,0.05,0.05
16.275,-0.03,0.01,0.07,0.08
16.284,-0.03,0.01,0.04,0.05
16.295,-0.03,0.01,0.04,0.05
16.304,-0.02,0.03,0.03,0.05
16.315,-0.01,0.03,0.04,0.05
16.324,-0.00,0.04,0.05,0.06
16.334,0.01,0.04,0.03,0.05
16.344,-0.01,0.05,0.03,0.06
16.354,-0.02,0.06,0.10,0.11
16.364,-0.04,0.08,0.10,0.14
16.374,-0.03,0.12,0.06,0.14
16.384,-0.02,0.13,0.07,0.15
16.394,0.01,0.13,0.05,0.14
16.404,0.05,0.13,0.04,0.14
16.414,0.07,0.11,0.05,0.14
16.424,0.05,0.08,0.10,0.14
16.434,0.00,0.06,0.09,0.11
16.444,-0.03,0.05,0.07,0.09
16.454,-0.07,0.04,0.10,0.13
16.464,-0.08,0.05,0.11,0.15
16.474,-0.08,0.05,0.10,0.14
16.484,-0.06,0.05,0.10,0.12
16.494,-0.01,0.06,0.11,0.13
16.504,0.00,0.06,0.08,0.10
16.514,0.03,0.05,0.03,0.07
16.524,0.04,0.03,-0.02,0.06
16.534,0.02,0.01,-0.04,0.04
16.544,0.01,-0.02,-0.05,0.05
16.554,-0.03,-0.02,0.03,0.05
16.564,-0.04,0.02,0.08,0.09
16.574,-0.09,0.06,-0.01,0.10
16.584,-0.04,0.07,0.05,0.10
16.594,-0.07,0.07,0.15,0.18
16.604,-0.11,0.09,0.13,0.20
16.614,-0.12,0.09,0.08,0.17
16.624,-0.09,0.12,0.10,0.18
16.634,-0.05,0.14,0.13,0.20
16.644,-0.03,0.13,0.08,0.16
16.654,0.00,0.09,0.06,0.11
16.664,0.02,0.06,0.08,0.10
16.674,0.02,0.05,0.10,0.11
16.684,0.00,0.04,0.06,0.07
16.694,-0.01,0.01,0.06,0.06
16.704,-0.04,0.01,0.05,0.06
16.714,-0.03,0.03,0.03,0.06
16.723,-0.03,0.02,0.01,0.04
16.734,-0.04,0.01,0.04,0.06
16.743,-0.05,0.03,0.08,0.10
16.754,-0.05,0.03,0.08,0.10
16.763,-0.04,0.04,0.07,0.09
16.773,-0.06,0.02,0.09,0.11
16.783,-0.05,0.04,0.08,0.11
16.793,-0.07,0.03,0.03,0.08
16.803,-0.07,0.04,0.06,0.10
16.813,-0.07,0.04,0.12,0.15
16.823,-0.06,0.05,0.12,0.14
16.833,-0.06,0.07,0.06,0.11
16.843,-0.06,0.06,0.07,0.11
16.853,-0.05,0.06,0.09,0.12
16.863,-0.06,0.07,0.06,0.11
16.873,-0.07,0.09,0.03,0.12
16.883,-0.09,0.08,0.09,0.15
16.893,-0.14,0.07,0.11,0.19
16.903,-0.14,0.08,0.07,0.18
16.913,-0.14,0.07,0.05,0.16
16.923,-0.15,0.05,0.05,0.16
16.933,-0.12,0.06,0.06,0.15
16.943,-0.10,0.04,0.06,0.12
16.953,-0.07,0.06,0.06,0.11
16.963,-0.05,0.06,0.07,0.11
16.973,-0.02,0.07,0.04,0.09
16.983,0.01,0.09,0.05,0.10
16.993,0.01,0.09,0.06,0.11
17.003,0.01,0.07,0.09,0.12
17.013,-0.02,0.06,0.11,0.13
17.023,-0.03,0.05,0.07,0.09
17.033,-0.03,0.04,0.08,0.09
17.043,-0.01,0.04,0.07,0.08
17.053,0.00,0.04,0.06,0.07
17.063,0.03,0.05,0.05,0.07
17.073,0.03,0.02,0.04,0.06
17.083,0.02,-0.01,0.06,0.06
17.093,-0.00,-0.02,0.05,0.06
17.103,-0.02,-0.03,0.05,0.06
17.113,-0.03,-0.01,0.04,0.05
17.123,-0.03,0.00,0.05,0.06
17.133,-0.02,0.03,0.07,0.08
17.143,0.02,0.06,0.08,0.10
17.153,0.04,0.05,0.09,0.11
17.163,0.01,0.02,0.09,0.09
17.173,0.00,-0.00,0.09,0.09
17.183,-0.04,-0.03,0.05,0.07
17.193,-0.07,-0.03,0.12,0.14
17.202,-0.09,-0.03,0.12,0.16
17.213,-0.08,-0.03,0.06,0.11
17.222,-0.09,-0.03,0.05,0.11
17.232,-0.06,-0.03,0.07,0.10
17.242,-0.06,-0.02,0.04,0.07
17.253,-0.04,-0.02,0.01,0.05
17.262,-0.03,-0.03,0.01,0.05
17.273,-0.04,-0.01,-0.01,0.05
17.282,-0.07,-0.01,0.04,0.08
17.292,-0.05,-0.02,0.07,0.09
17.302,-0.05,0.01,0.01,0.05
17.312,-0.03,0.05,-0.01,0.06
17.322,-0.00,0.06,0.05,0.08
17.332,-0.02,0.08,0.10,0.13
17.342,-0.02,0.08,0.11,0.14
17.352,-0.01,0.07,0.12,0.14
17.362,-0.03,0.08,0.14,0.17
17.372,-0.03,0.10,0.10,0.15
17.382,-0.02,0.10,0.04,0.11
17.392,-0.03,0.09,0.08,0.12
17.402,-0.02,0.07,0.09,0.11
17.412,-0.01,0.06,0.04,0.07
17.422,0.00,0.04,0.03,0.05
17.432,-0.00,0.03,0.02,0.04
17.442,0.01,0.03,-0.02,0.03
17.452,0.02,0.05,-0.01,0.05
17.462,0.03,0.05,0.03,0.07
17.472,0.00,0.04,0.10,0.10
17.482,-0.01,0.05,0.09,0.10
17.492,0.01,0.07,0.10,0.12
17.502,-0.02,0.08,0.06,0.10
17.512,-0.01,0.10,0.04,0.11
17.522,0.01,0.11,0.06,0.12
17.532,-0.03,0.11,0.05,0.12
17.542,-0.04,0.11,0.05,0.13
17.552,-0.04,0.13,0.11,0.18
17.562,-0.05,0.12,0.11,0.17
17.572,-0.04,0.12,0.04,0.13
17.582,-0.04,0.12,0.04,0.13
17.592,-0.04,0.11,0.06,0.13
17.602,-0.04,0.10,0.13,0.17
17.612,-0.05,0.10,0.12,0.16
17.622,-0.06,0.07,0.07,0.11
17.632,-0.07,0.09,0.06,0.13
17.642,-0.05,0.08,0.12,0.15
17.652,-0.04,0.08,0.13,0.15
17.662,-0.04,0.07,0.08,0.11
17.671,-0.02,0.10,0.04,0.11
17.682,-0.08,-0.01,0.03,0.08
17.691,-0.05,-0.02,0.12,0.14
17.701,-0.11,-0.01,0.09,0.15
17.711,0.09,0.41,-0.17,0.45
17.721,-0.06,-0.12,0.05,0.14
17.731,-0.18,-0.27,0.35,0.48
17.741,-0.23,-0.02,0.00,0.23
17.751,-0.07,-0.01,-0.11,0.13
17.761,0.09,-0.03,-0.01,0.09
17.771,0.02,0.01,0.06,0.06
17.781,0.02,-0.01,0.05,0.05
17.791,0.01,-0.08,0.10,0.12
17.801,-0.04,-0.08,0.11,0.14
17.811,-0.05,-0.08,0.10,0.14
17.821,-0.05,-0.07,0.09,0.13
17.831,-0.04,-0.01,0.08,0.09
17.841,-0.03,0.05,0.04,0.07
17.851,0.04,-0.00,0.06,0.08
17.861,0.05,0.09,0.01,0.10
17.871,0.03,0.08,0.04,0.09
17.881,0.07,0.07,0.09,0.14
17.891,0.01,0.12,0.05,0.13
17.901,-0.01,0.12,0.09,0.15
17.911,-0.06,0.13,0.15,0.21
17.921,-0.06,0.14,0.03,0.15
17.931,-0.09,0.12,0.10,0.18
17.941,-0.10,0.13,0.08,0.19
17.951,-0.08,0.15,0.03,0.17
17.961,-0.04,0.13,0.03,0.14
17.971,-0.03,0.12,0.04,0.13
17.981,-0.00,0.13,0.03,0.14
17.991,0.00,0.14,0.02,0.14
18.001,-0.02,0.11,0.03,0.12
18.011,-0.07,0.08,0.03,0.12
18.021,-0.11,0.08,0.05,0.15
18.031,-0.11,0.08,0.13,0.18
18.041,-0.08,0.06,0.15,0.18
18.051,-0.07,0.05,0.00,0.09
18.061,-0.02,0.03,-0.01,0.04
18.070,-0.00,0.04,0.09,0.10
18.081,-0.00,0.08,0.20,0.22
18.091,0.04,0.11,0.10,0.16
18.101,0.06,0.11,0.02,0.12
18.111,0.06,0.10,0.09,0.15
18.121,0.05,0.11,0.16,0.20
18.131,-0.01,0.16,0.05,0.16
18.140,-0.06,0.11,0.08,0.15
18.150,-0.05,0.07,0.14,0.16
18.160,-0.07,0.04,0.08,0.12
18.170,-0.08,-0.01,0.05,0.09
18.180,-0.04,-0.04,0.04,0.07
18.190,-0.02,-0.04,0.04,0.06
18.200,0.02,-0.02,0.03,0.04
18.210,0.03,-0.01,0.05,0.06
18.220,0.03,0.01,0.02,0.04
18.230,0.04,0.01,-0.01,0.04
18.240,0.01,0.02,0.02,0.03
18.250,-0.04,0.01,0.07,0.08
18.260,-0.07,0.01,0.08,0.11
18.270,-0.09,0.02,0.08,0.13
18.280,-0.08,0.03,0.10,0.13
18.290,-0.07,0.04,0.06,0.10
18.300,-0.04,0.06,0.03,0.08
18.310,-0.01,0.07,0.03,0.07
18.320,-0.02,0.05,0.04,0.07
18.330,-0.04,0.05,0.10,0.12
18.340,-0.04,0.06,0.10,0.12
18.350,-0.04,0.06,0.04,0.08
18.360,-0.05,0.05,0.07,0.10
18.370,-0.06,0.05,0.12,0.14
18.380,-0.06,0.08,0.12,0.16
18.390,-0.03,0.08,0.09,0.12
18.400,0.00,0.08,0.07,0.10
18.410,0.01,0.05,0.02,0.06
18.420,0.03,0.05,0.01,0.06
18.430,0.02,0.05,0.04,0.07
18.440,0.02,0.04,0.08,0.09
18.450,0.02,0.05,0.06,0.08
18.460,0.02,0.05,0.09,0.10
18.470,0.01,0.06,0.09,0.11
18.480,0.01,0.07,0.07,0.10
18.490,0.00,0.07,0.05,0.09
18.500,0.01,0.07,0.06,0.10
18.510,0.01,0.08,0.01,0.08
18.520,0.03,0.05,0.01,0.06
18.530,0.03,0.05,0.03,0.07
18.540,0.02,0.04,0.03,0.05
18.550,-0.00,0.01,0.06,0.06
18.560,-0.02,-0.00,0.07,0.08
18.570,-0.06,0.03,0.08,0.11
18.580,-0.08,0.04,0.08,0.12
18.590,-0.10,0.04,0.05,0.12
18.599,-0.10,0.04,0.08,0.14
18.610,-0.05,0.04,0.10,0.12
18.619,-0.05,0.05,0.02,0.07
18.629,-0.03,0.03,0.04,0.05
18.639,-0.02,0.04,0.14,0.15
18.649,-0.04,0.06,0.14,0.16
18.659,0.01,0.05,0.02,0.05
18.669,0.02,0.08,0.07,0.11
18.679,-0.01,0.10,0.18,0.20
18.689,-0.03,0.09,0.14,0.17
18.699,-0.05,0.06,0.10,0.13
18.709,-0.04,0.05,0.05,0.09
18.719,-0.05,0.02,0.03,0.07
18.729,-0.06,0.05,0.03,0.08
18.739,-0.06,0.04,0.04,0.09
18.749,-0.06,0.07,0.05,0.11
18.759,-0.07,0.09,0.04,0.12
18.769,-0.05,0.11,0.07,0.14
18.779,-0.02,0.11,0.08,0.13
18.789,-0.03,0.06,0.06,0.09
18.799,-0.05,0.04,0.01,0.06
18.809,-0.01,0.03,0.03,0.04
18.819,-0.05,0.02,0.01,0.05
18.829,-0.05,0.02,0.02,0.06
18.839,-0.04,0.00,0.01,0.04
18.849,-0.02,0.02,0.02,0.04
18.859,-0.02,0.01,0.06,0.07
18.869,-0.03,0.01,0.09,0.09
18.879,-0.04,0.02,0.10,0.11
18.889,0.00,0.05,0.09,0.11
18.899,0.04,0.08,0.04,0.09
18.909,0.05,0.09,0.02,0.11
18.919,0.02,0.11,0.04,0.12
18.929,-0.02,0.09,0.11,0.14
18.939,-0.04,0.09,0.11,0.15
18.949,-0.04,0.09,0.08,0.13
18.959,-0.07,0.07,0.08,0.13
18.969,-0.09,0.09,0.11,0.17
18.979,-0.08,0.10,0.10,0.16
18.989,-0.05,0.08,0.04,0.10
18.999,-0.01,0.06,0.09,0.11
19.009,0.01,0.10,0.13,0.16
19.019,0.01,0.08,0.01,0.08
19.029,-0.01,0.03,-0.06,0.07
19.039,-0.04,0.02,0.04,0.06
19.048,-0.08,0.02,0.16,0.18
19.058,-0.09,0.00,0.06,0.11
19.069,-0.05,-0.02,-0.04,0.07
19.078,-0.03,-0.01,-0.04,0.05
19.088,-0.07,0.00,0.11,0.14
19.098,-0.06,0.01,0.23,0.24
19.108,-0.04,0.00,0.06,0.07
19.118,-0.03,-0.01,-0.05,0.06
19.128,-0.04,0.01,-0.07,0.08
19.138,-0.01,0.03,-0.02,0.04
19.148,-0.01,0.02,0.05,0.05
19.158,-0.03,0.00,0.30,0.30
19.168,-0.07,-0.01,0.27,0.28
19.178,-0.09,-0.04,-0.02,0.10
19.188,-0.08,-0.06,-0.08,0.13
19.198,-0.10,-0.04,0.02,0.11
19.208,-0.09,-0.01,0.07,0.12
19.218,-0.08,-0.01,0.07,0.11
19.228,-0.07,0.04,0.16,0.18
19.238,-0.03,0.12,0.19,0.23
19.248,-0.02,0.14,0.01,0.15
19.258,0.00,0.12,-0.06,0.14
19.268,-0.01,0.08,0.04,0.10
19.278,-0.07,0.08,0.16,0.19
19.288,-0.06,0.09,0.13,0.17
19.298,-0.05,0.10,0.03,0.11
19.308,-0.03,0.11,0.01,0.11
19.318,-0.02,0.11,0.11,0.16
19.328,-0.03,0.09,0.09,0.13
19.338,-0.06,0.07,0.01,0.09
19.348,-0.06,0.05,0.04,0.09
19.358,-0.06,0.04,0.09,0.12
19.368,-0.05,0.05,0.06,0.09
19.378,-0.04,0.03,-0.00,0.05
19.388,-0.01,-0.01,0.02,0.02
19.398,0.01,-0.03,0.03,0.04
19.408,0.00,-0.04,0.00,0.04
19.418,0.02,-0.08,0.01,0.09
19.428,0.03,-0.11,0.10,0.15
19.438,-0.01,-0.05,0.07,0.09
19.448,-0.01,-0.07,0.03,0.08
19.458,-0.02,-0.05,0.07,0.09
19.468,-0.02,-0.08,0.09,0.12
19.478,0.01,-0.10,0.10,0.14
19.488,-0.02,-0.07,0.06,0.09
19.498,-0.01,-0.05,0.07,0.09
19.508,-0.01,-0.03,0.03,0.04
19.518,-0.02,-0.02,0.00,0.03
19.527,-0.03,0.04,0.09,0.11
19.537,-0.07,0.08,0.05,0.12
19.547,-0.08,0.06,0.04,0.11
19.557,-0.10,0.08,0.08,0.15
19.567,-0.14,0.11,0.16,0.24
19.577,-0.15,0.12,0.15,0.25
19.587,-0.12,0.11,0.14,0.21
19.597,-0.11,0.11,0.10,0.18
19.607,-0.08,0.13,0.11,0.19
19.617,-0.06,0.10,0.14,0.18
19.627,-0.04,0.09,0.04,0.11
19.637,-0.03,0.06,0.10,0.12
19.647,-0.02,0.08,0.11,0.13
19.657,-0.01,0.06,0.10,0.12
19.667,0.06,0.11,0.15,0.19
19.677,0.01,0.04,0.08,0.09
19.687,-0.02,0.01,0.21,0.21
19.697,-0.05,0.01,0.10,0.11
19.707,0.00,-0.07,0.02,0.07
19.717,0.01,-0.11,0.05,0.13
19.727,-0.05,-0.07,0.03,0.09
19.737,-0.00,-0.06,0.05,0.08
19.747,0.02,-0.04,-0.01,0.05
19.757,0.04,-0.02,-0.07,0.08
19.767,0.04,-0.00,-0.00,0.04
19.777,0.06,0.02,0.09,0.11
19.787,0.01,0.06,0.09,0.11
19.797,-0.05,0.05,0.09,0.11
19.807,-0.12,0.01,0.01,0.12
19.817,-0.07,-0.01,0.06,0.09
19.827,-0.09,0.08,0.03,0.12
19.837,-0.08,0.11,-0.03,0.14
19.847,0.01,0.09,-0.03,0.09
19.857,0.07,0.06,0.01,0.09
19.867,0.11,-0.02,0.14,0.18
19.877,0.13,-0.04,0.19,0.23
19.887,0.08,-0.02,0.13,0.15
19.897,-0.03,0.01,0.06,0.06
19.907,-0.07,0.06,-0.02,0.09
19.917,-0.06,0.11,-0.03,0.12
19.927,-0.08,0.14,0.05,0.17
19.937,-0.06,0.17,0.06,0.19
19.947,-0.02,0.17,-0.01,0.17
19.956,0.02,0.18,-0.01,0.18
19.967,0.00,0.19,-0.02,0.19
19.976,-0.02,0.20,-0.03,0.20
19.986,0.02,0.21,0.06,0.22
19.996,-0.02,0.26,0.15,0.30
20.007,-0.07,0.25,0.15,0.30
20.016,-0.13,0.23,0.16,0.31
20.026,-0.16,0.24,0.14,0.32
20.036,-0.13,0.20,0.08,0.25
20.046,-0.09,0.17,0.07,0.21
20.056,-0.08,0.15,0.13,0.21
20.066,-0.06,0.11,0.13,0.18
20.076,-0.02,0.08,0.09,0.12
20.086,-0.00,0.05,0.14,0.15
20.096,-0.02,0.05,0.10,0.12
20.106,-0.00,0.04,0.05,0.07
20.116,-0.01,0.03,0.06,0.06
20.126,-0.04,0.04,0.16,0.17
20.136,-0.05,0.01,0.23,0.24
20.146,-0.05,-0.04,0.08,0.10
20.156,-0.06,-0.06,-0.06,0.10
20.166,-0.07,-0.07,-0.01,0.10
20.176,-0.11,-0.08,0.14,0.20
20.186,-0.15,-0.11,0.08,0.20
20.196,-0.11,-0.11,-0.06,0.17
20.206,-0.09,-0.09,-0.12,0.18
20.216,-0.07,-0.09,-0.02,0.11
20.226,0.01,-0.09,0.12,0.15
20.236,0.06,-0.09,0.13,0.17
20.246,0.07,-0.09,0.07,0.13
20.256,0.06,-0.08,0.01,0.10
20.266,0.06,-0.09,-0.05,0.12
20.276,0.05,-0.07,-0.08,0.12
20.286,0.01,-0.08,-0.03,0.08
20.296,-0.03,-0.05,0.01,0.06
20.306,-0.07,-0.04,0.01,0.08
20.316,-0.09,0.00,0.03,0.10
20.326,-0.11,0.07,0.07,0.15
20.336,-0.07,0.11,0.12,0.18
20.346,0.03,0.15,0.13,0.20
20.356,0.07,0.15,0.07,0.18
20.366,0.05,0.09,0.06,0.12
20.376,0.01,0.04,0.10,0.11
20.386,-0.05,0.01,0.06,0.08
20.396,-0.10,-0.02,0.02,0.10
20.405,-0.12,-0.01,0.08,0.14
20.415,-0.16,0.03,0.10,0.19
20.425,-0.18,0.06,0.05,0.20
20.435,-0.16,0.09,0.06,0.19
20.445,-0.13,0.15,0.14,0.24
20.455,-0.10,0.19,0.06,0.22
20.465,-0.06,0.17,-0.04,0.19
20.476,-0.08,0.15,0.05,0.18
20.485,-0.13,0.17,0.19,0.28
20.495,-0.15,0.18,0.12,0.26
20.505,-0.12,0.15,0.04,0.19
20.515,-0.13,0.13,0.03,0.19
20.525,-0.14,0.10,0.09,0.19
20.535,-0.17,0.05,0.32,0.36
20.545,-0.13,0.10,0.40,0.43
20.555,-0.06,0.12,0.12,0.18
20.565,0.02,0.06,-0.06,0.09
20.575,0.05,0.03,-0.03,0.07
20.585,0.04,0.02,0.07,0.09
20.595,0.01,-0.02,0.10,0.11
20.605,-0.01,-0.04,0.03,0.05
20.615,0.01,-0.00,-0.08,0.08
20.625,0.05,0.01,-0.13,0.14
20.635,0.08,0.01,-0.06,0.10
20.645,0.07,0.01,0.19,0.20
20.655,0.01,-0.01,0.16,0.16
20.665,0.01,-0.06,-0.09,0.11
20.675,0.04,-0.03,-0.10,0.11
20.685,0.06,0.07,-0.03,0.10
20.695,0.06,0.13,0.05,0.16
20.705,0.03,0.13,0.17,0.22
20.715,-0.05,0.14,0.26,0.30
20.725,-0.11,0.13,0.24,0.30
20.735,-0.10,0.10,0.16,0.21
20.745,-0.12,0.11,0.12,0.20
20.755,-0.12,0.11,0.09,0.18
20.765,-0.10,0.10,0.07,0.16
20.775,-0.09,0.08,0.11,0.17
20.785,-0.11,0.02,0.20,0.23
20.795,-0.12,-0.01,0.11,0.16
20.805,-0.08,-0.07,-0.02,0.11
20.815,-0.04,-0.08,-0.07,0.11
20.825,-0.03,-0.06,-0.05,0.09
20.835,-0.02,-0.05,0.02,0.06
20.845,-0.02,-0.05,0.07,0.09
20.855,-0.04,-0.06,0.08,0.10
20.865,-0.07,-0.05,0.16,0.18
20.875,-0.10,-0.04,0.15,0.18
20.885,-0.11,-0.02,0.01,0.11
20.894,-0.09,-0.06,-0.06,0.12
20.905,-0.08,-0.04,-0.02,0.09
20.915,-0.07,-0.04,0.02,0.08
20.924,-0.03,-0.04,-0.04,0.07
20.934,0.00,-0.06,-0.07,0.09
20.944,0.04,-0.06,-0.02,0.08
20.954,0.05,-0.03,0.01,0.06
20.964,0.06,0.01,0.05,0.08
20.974,0.03,0.07,0.18,0.20
20.984,-0.03,0.17,0.26,0.31
20.994,-0.08,0.23,0.28,0.37
21.004,-0.13,0.29,0.31,0.44
21.014,-0.16,0.32,0.32,0.48
21.024,-0.17,0.27,0.25,0.40
21.034,-0.13,0.18,0.14,0.26
21.044,-0.10,0.05,0.00,0.11
21.054,-0.07,-0.04,-0.07,0.11
21.064,-0.03,-0.13,-0.09,0.16
21.074,0.01,-0.18,-0.16,0.24
21.084,0.07,-0.16,-0.18,0.25
21.094,0.09,-0.18,-0.13,0.24
21.104,0.11,-0.14,-0.03,0.18
21.114,0.11,-0.03,0.09,0.14
21.124,0.05,-0.01,-0.04,0.07
21.134,0.02,0.02,0.07,0.08
21.144,-0.03,0.12,0.05,0.13
21.154,-0.00,0.10,0.11,0.15
21.164,-0.01,0.12,0.15,0.19
21.174,-0.04,0.15,0.11,0.19
21.184,-0.05,0.16,0.11,0.20
21.194,-0.05,0.15,0.08,0.18
21.204,-0.03,0.14,0.00,0.14
21.214,-0.01,0.13,0.00,0.13
21.224,-0.02,0.13,0.05,0.14
21.234,-0.04,0.12,0.03,0.13
21.244,-0.02,0.11,0.02,0.11
21.254,-0.01,0.12,0.06,0.13
21.264,-0.01,0.12,0.09,0.15
21.274,-0.04,0.12,0.03,0.13
21.283,-0.04,0.14,0.03,0.15
21.294,-0.07,0.14,0.09,0.18
21.304,-0.09,0.11,0.12,0.18
21.314,-0.09,0.10,0.11,0.18
21.324,-0.07,0.07,0.10,0.14
21.333,-0.04,0.05,0.13,0.15
21.343,-0.02,0.04,0.15,0.15
21.353,0.00,0.04,0.09,0.10
21.363,0.04,0.04,0.05,0.08
21.373,0.04,0.07,0.04,0.09
21.383,0.02,0.09,0.06,0.11
21.393,0.00,0.10,0.08,0.13
21.403,-0.04,0.10,0.13,0.17
21.413,-0.11,0.07,0.16,0.20
21.423,-0.10,0.04,0.07,0.13
21.433,-0.10,0.01,-0.00,0.10
21.443,-0.08,-0.02,0.03,0.08
21.453,-0.06,0.00,0.02,0.06
21.463,-0.04,-0.00,-0.04,0.05
21.473,-0.01,0.03,-0.04,0.05
21.483,-0.05,0.08,0.06,0.11
21.493,-0.09,0.10,0.12,0.18
21.503,-0.09,0.12,0.12,0.19
21.513,-0.09,0.12,0.08,0.17
21.523,-0.09,0.12,0.13,0.20
21.533,-0.05,0.11,0.19,0.22
21.543,-0.01,0.10,0.05,0.11
21.553,0.03,0.01,-0.05,0.06
21.563,0.04,-0.05,-0.02,0.07
21.573,-0.02,-0.10,0.12,0.16
21.583,-0.04,-0.14,0.07,0.16
21.593,-0.02,-0.15,-0.08,0.17
21.603,-0.01,-0.09,-0.09,0.13
21.613,0.00,-0.02,-0.04,0.04
21.623,0.02,0.06,0.10,0.12
21.633,-0.01,0.08,0.24,0.26
21.643,-0.06,0.10,0.14,0.18
21.653,-0.07,0.10,0.04,0.13
21.663,-0.08,0.10,0.03,0.13
21.673,-0.09,0.12,0.08,0.17
21.683,-0.10,0.10,0.22,0.27
21.693,-0.10,0.12,0.27,0.31
21.703,-0.08,0.12,0.06,0.16
21.713,-0.05,0.10,-0.05,0.12
21.723,-0.03,0.12,-0.02,0.12
21.733,-0.02,0.11,0.04,0.12
21.743,-0.04,0.07,0.07,0.11
21.753,-0.06,0.05,0.20,0.21
21.763,-0.09,0.05,0.16,0.19
21.773,-0.08,0.05,0.03,0.10
21.783,-0.06,0.02,0.05,0.08
21.793,-0.08,-0.00,0.17,0.19
21.802,-0.09,-0.03,0.13,0.16
21.813,-0.01,-0.06,0.01,0.06
21.822,0.05,-0.04,-0.07,0.09
21.832,0.10,-0.03,-0.06,0.12
21.842,0.11,-0.00,0.02,0.11
21.852,0.09,0.01,0.13,0.15
21.863,0.04,0.02,0.11,0.12
21.872,0.00,0.04,0.03,0.05
21.882,-0.01,0.06,0.01,0.06
21.892,-0.04,0.08,0.07,0.11
21.902,-0.08,0.06,0.19,0.21
21.912,-0.09,0.07,0.16,0.20
21.922,-0.09,0.07,0.01,0.12
21.932,-0.06,0.07,-0.06,0.11
21.942,-0.04,0.10,-0.03,0.12
21.952,0.00,0.13,0.04,0.13
21.962,0.02,0.13,0.11,0.17
21.972,0.03,0.13,0.08,0.15
21.982,0.01,0.14,0.06,0.15
21.992,-0.02,0.13,0.11,0.17
22.002,-0.05,0.13,0.19,0.23
22.012,-0.08,0.09,0.23,0.26
22.022,-0.09,0.05,0.24,0.26
22.032,-0.09,0.04,0.15,0.18
22.042,-0.09,0.01,0.13,0.16
22.052,-0.06,-0.01,0.12,0.14
22.062,-0.03,-0.02,0.02,0.04
22.072,0.03,-0.02,-0.08,0.09
22.082,0.07,-0.01,-0.08,0.10
22.092,0.04,-0.03,0.03,0.06
22.102,-0.01,-0.04,0.02,0.05
22.112,-0.05,-0.06,-0.05,0.09
22.122,-0.04,-0.03,-0.05,0.07
22.132,-0.05,0.05,0.09,0.12
22.142,-0.06,0.10,0.26,0.28
22.152,-0.06,0.11,0.19,0.22
22.162,0.01,0.09,0.07,0.11
22.172,0.01,0.07,0.02,0.08
22.182,-0.07,0.02,0.02,0.08
22.192,-0.09,-0.02,0.06,0.11
22.202,-0.06,-0.02,0.09,0.11
22.212,-0.08,-0.01,0.17,0.18
22.222,-0.11,-0.03,0.12,0.17
22.232,-0.10,-0.04,-0.02,0.11
22.242,-0.07,-0.01,-0.08,0.11
22.252,-0.04,0.03,-0.04,0.06
22.262,-0.04,0.02,0.05,0.07
22.272,-0.04,0.02,0.16,0.17
22.282,-0.04,0.01,0.19,0.19
22.291,0.00,0.01,0.06,0.06
22.301,0.01,-0.01,-0.04,0.05
22.311,0.03,-0.01,-0.08,0.09
22.321,0.03,-0.01,-0.06,0.07
22.331,0.01,-0.01,-0.00,0.01
22.341,-0.03,-0.00,0.08,0.09
22.351,-0.10,0.01,0.19,0.21
22.361,-0.12,0.04,0.21,0.24
22.371,-0.11,0.07,0.12,0.18
22.381,-0.11,0.10,0.01,0.15
22.391,-0.08,0.09,0.10,0.16
22.401,-0.07,0.08,0.13,0.17
22.411,-0.03,0.04,0.06,0.07
22.421,-0.01,0.02,-0.03,0.04
22.431,-0.01,0.03,-0.05,0.06
22.441,-0.01,0.04,0.07,0.08
22.451,0.01,0.04,0.20,0.21
22.461,-0.01,0.00,0.05,0.05
22.471,-0.03,-0.02,-0.05,0.06
22.481,-0.03,0.01,-0.02,0.03
22.491,-0.07,0.08,0.03,0.11
22.501,-0.05,0.08,0.16,0.18
22.511,-0.02,0.09,0.23,0.25
22.521,-0.03,0.07,0.08,0.11
22.531,-0.01,0.05,-0.01,0.05
22.541,-0.01,0.02,-0.00,0.02
22.551,-0.03,-0.00,0.05,0.06
22.561,-0.04,-0.02,0.17,0.18
22.571,-0.03,0.03,0.22,0.22
22.581,-0.03,0.06,0.04,0.08
22.591,-0.01,0.05,-0.07,0.08
22.601,-0.02,0.05,-0.02,0.06
22.611,-0.05,0.07,0.04,0.09
22.621,-0.05,0.06,0.13,0.15
22.631,-0.06,0.05,0.31,0.32
22.641,-0.08,0.05,0.15,0.18
22.651,-0.06,0.01,-0.07,0.09
22.661,-0.05,-0.03,-0.07,0.09
22.671,-0.05,-0.02,-0.01,0.05
22.681,-0.01,-0.01,0.00,0.01
22.691,-0.01,-0.01,0.02,0.02
22.701,-0.01,0.02,0.08,0.08
22.710,-0.04,0.07,0.09,0.12
22.720,-0.01,0.15,0.15,0.22
22.730,-0.01,0.18,0.12,0.21
22.740,-0.03,0.14,0.05,0.15
22.750,-0.02,0.09,0.10,0.13
22.760,-0.06,0.06,0.09,0.12
22.770,-0.08,0.04,0.08,0.12
22.780,-0.06,0.02,0.06,0.09
22.790,-0.05,-0.02,0.03,0.07
22.801,-0.01,-0.03,0.03,0.04
22.810,0.01,-0.06,-0.00,0.06
22.820,0.02,-0.08,0.01,0.08
22.830,-0.01,-0.04,0.06,0.07
22.840,-0.04,0.01,0.10,0.11
22.850,-0.06,0.03,0.10,0.12
22.860,-0.08,0.04,0.10,0.13
22.870,-0.10,0.03,0.10,0.14
22.880,-0.09,0.01,0.10,0.14
22.890,-0.03,-0.02,0.07,0.08
22.900,0.00,-0.01,0.04,0.04
22.910,0.03,0.03,-0.02,0.05
22.920,0.03,0.03,-0.03,0.06
22.930,0.00,0.03,0.03,0.05
22.940,-0.06,0.04,0.11,0.13
22.950,-0.09,0.04,0.07,0.12
22.960,-0.09,0.05,0.04,0.12
22.970,-0.06,0.10,0.09,0.15
22.980,-0.05,0.11,0.14,0.19
22.990,-0.03,0.12,0.09,0.15
23.000,-0.04,0.11,0.06,0.13
23.010,-0.05,0.09,0.10,0.14
23.020,-0.05,0.07,0.11,0.14
23.030,-0.03,0.04,0.03,0.06
23.040,-0.01,0.02,0.03,0.04
23.050,0.01,0.01,0.09,0.09
23.060,-0.01,0.01,0.15,0.15
23.070,-0.03,-0.01,0.07,0.08
23.080,-0.05,-0.00,0.04,0.06
23.090,-0.06,0.01,0.08,0.11
23.100,-0.08,0.03,0.18,0.20
23.110,-0.05,0.01,0.13,0.14
23.120,-0.04,-0.00,0.04,0.05
23.130,-0.02,0.01,0.03,0.04
23.140,-0.01,0.04,0.12,0.13
23.150,-0.01,0.05,0.10,0.11
23.160,0.00,0.04,-0.00,0.04
23.170,-0.01,0.05,-0.02,0.06
23.180,-0.05,0.05,0.07,0.10
23.190,-0.08,0.03,0.08,0.12
23.199,-0.06,0.04,0.05,0.09
23.209,-0.06,0.06,0.03,0.09
23.219,-0.06,0.07,0.06,0.11
23.229,-0.07,0.08,0.11,0.15
23.239,-0.04,0.08,0.09,0.13
23.249,-0.02,0.04,0.04,0.05
23.259,-0.01,0.01,0.03,0.03
23.269,-0.03,-0.00,0.05,0.06
23.279,-0.03,-0.01,0.07,0.08
23.289,-0.04,0.02,0.08,0.10
23.299,-0.06,0.04,0.11,0.13
23.309,-0.08,0.07,0.06,0.12
23.319,-0.08,0.05,0.02,0.09
23.329,-0.07,0.06,0.07,0.12
23.339,-0.07,0.05,0.08,0.12
23.349,-0.05,0.03,0.10,0.12
23.359,-0.04,0.03,0.10,0.11
23.369,-0.01,0.03,0.04,0.06
23.379,0.01,0.04,0.01,0.04
23.389,0.01,0.04,-0.01,0.04
23.399,-0.02,0.04,0.05,0.07
23.409,-0.06,0.05,0.12,0.14
23.419,-0.09,0.05,0.10,0.14
23.429,-0.10,0.04,0.11,0.15
23.439,-0.12,0.08,0.06,0.15
23.449,-0.09,0.08,-0.01,0.12
23.459,-0.05,0.06,0.03,0.08
23.469,-0.00,0.03,0.08,0.08
23.479,0.01,-0.01,0.08,0.08
23.489,0.00,-0.02,0.06,0.06
23.499,-0.02,-0.02,0.07,0.07
23.509,-0.03,-0.00,0.08,0.09
23.519,-0.04,0.00,0.08,0.09
23.529,-0.04,0.01,0.11,0.11
23.539,-0.04,0.02,0.07,0.08
23.549,-0.03,0.02,0.01,0.04
23.559,-0.02,0.01,-0.00,0.02
23.569,-0.03,-0.01,-0.02,0.03
23.579,-0.04,-0.02,0.01,0.05
23.589,-0.04,-0.01,0.06,0.07
23.599,-0.04,0.00,0.07,0.08
23.609,-0.04,0.02,0.01,0.04
23.619,-0.03,0.02,0.05,0.06
23.629,-0.04,0.06,0.08,0.11
23.639,-0.05,0.07,0.06,0.11
23.649,-0.05,0.09,0.10,0.15
23.658,-0.07,0.15,0.14,0.21
23.668,-0.04,0.14,0.13,0.19
23.678,-0.06,0.14,0.11,0.18
23.688,-0.08,0.14,0.10,0.19
23.698,-0.05,0.10,0.11,0.16
23.708,-0.02,0.11,0.10,0.15
23.718,-0.01,0.08,0.11,0.13
23.728,-0.02,0.04,0.10,0.11
23.738,-0.03,0.02,0.03,0.05
23.748,-0.00,0.01,0.02,0.02
23.758,0.00,-0.01,-0.01,0.01
23.768,-0.02,-0.01,0.01,0.02
23.778,-0.05,-0.02,0.04,0.07
23.788,-0.07,-0.02,0.05,0.09
23.798,-0.07,0.00,0.07,0.10
23.808,-0.02,0.01,0.03,0.04
23.818,0.03,0.04,0.01,0.05
23.828,0.08,0.08,0.04,0.12
23.838,0.11,0.11,0.05,0.16
23.848,0.08,0.13,0.11,0.19
23.858,0.06,0.17,0.20,0.27
23.868,0.01,0.22,0.27,0.35
23.878,-0.05,0.24,0.29,0.38
23.888,-0.08,0.21,0.24,0.33
23.898,-0.11,0.17,0.22,0.30
23.908,-0.14,0.11,0.22,0.28
23.918,-0.14,0.00,0.07,0.15
23.928,-0.12,-0.09,-0.07,0.17
23.938,-0.10,-0.15,-0.17,0.25
23.948,-0.06,-0.19,-0.19,0.28
23.958,-0.05,-0.21,-0.14,0.26
23.968,-0.06,-0.20,-0.10,0.23
23.978,-0.10,-0.20,0.02,0.22
23.988,-0.12,-0.18,0.12,0.25
23.998,-0.14,-0.14,0.15,0.25
24.008,-0.13,-0.10,0.14,0.22
24.018,-0.11,-0.08,0.11,0.17
24.028,-0.08,-0.09,0.09,0.15
24.038,-0.04,-0.08,0.10,0.14
24.048,-0.02,-0.10,0.08,0.13
24.058,0.01,-0.09,0.01,0.09
24.067,0.04,-0.10,-0.03,0.12
24.078,0.02,-0.09,-0.03,0.10
24.088,0.00,-0.02,0.01,0.02
24.098,-0.03,0.03,-0.00,0.05
24.108,-0.09,0.06,0.08,0.13
24.117,-0.13,0.10,0.11,0.20
24.128,-0.13,0.12,0.12,0.22
24.138,-0.11,0.14,0.12,0.22
24.147,-0.06,0.16,0.09,0.19
24.157,-0.03,0.15,0.08,0.17
24.167,-0.03,0.16,0.10,0.19
24.177,-0.03,0.18,0.11,0.22
24.187,-0.05,0.18,0.11,0.21
24.197,-0.05,0.18,0.15,0.25
24.207,-0.08,0.18,0.14,0.24
24.217,-0.07,0.15,0.13,0.21
24.227,-0.03,0.13,0.07,0.15
24.237,-0.02,0.11,0.05,0.12
24.247,0.01,0.08,0.03,0.09
24.257,0.03,0.06,-0.00,0.07
24.267,0.05,0.02,0.01,0.05
24.277,0.03,-0.01,0.06,0.07
24.287,-0.02,-0.02,0.11,0.11
24.297,-0.05,-0.02,0.11,0.12
24.307,-0.06,0.01,0.14,0.16
24.317,-0.08,0.03,0.16,0.18
24.327,-0.11,0.02,0.13,0.18
24.337,-0.11,0.02,0.11,0.16
24.347,-0.13,0.03,0.08,0.16
24.357,-0.11,0.04,0.02,0.12
24.367,-0.11,0.03,-0.01,0.12
24.377,-0.10,-0.00,0.02,0.10
24.387,-0.06,0.00,0.01,0.06
24.397,-0.06,-0.02,-0.04,0.07
24.407,-0.01,-0.03,-0.02,0.04
24.417,0.02,-0.03,-0.00,0.03
24.427,0.01,0.00,-0.03,0.03
24.437,0.02,0.00,-0.05,0.05
24.447,0.00,-0.01,0.01,0.01
24.457,-0.03,0.01,0.10,0.11
24.467,-0.02,0.03,0.04,0.06
24.477,0.01,0.03,-0.00,0.03
24.487,0.01,0.04,0.01,0.04
24.497,-0.02,0.06,0.07,0.09
24.507,-0.02,0.09,0.16,0.19
24.517,-0.01,0.14,0.17,0.22
24.527,-0.03,0.16,0.12,0.20
24.537,-0.05,0.15,0.14,0.21
24.547,-0.10,0.14,0.23,0.28
24.557,-0.11,0.12,0.18,0.24
24.567,-0.10,0.08,0.07,0.15
24.577,-0.09,0.04,0.05,0.11
24.586,-0.10,0.02,0.07,0.12
24.596,-0.08,0.03,0.07,0.11
24.606,-0.06,0.02,0.03,0.07
24.616,-0.06,0.03,0.00,0.07
24.626,-0.07,0.05,0.10,0.14
24.636,-0.09,0.07,0.20,0.23
24.646,-0.11,0.06,0.03,0.12
24.656,-0.10,0.02,-0.07,0.13
24.666,-0.10,0.01,0.02,0.10
24.676,-0.09,0.03,0.15,0.17
24.686,-0.05,0.03,0.10,0.11
24.696,-0.01,0.02,-0.04,0.04
24.706,0.01,0.00,-0.07,0.07
24.716,0.00,0.01,0.10,0.10
24.726,-0.01,-0.02,0.23,0.23
24.736,-0.04,-0.04,0.03,0.07
24.746,-0.02,-0.05,-0.10,0.11
24.756,0.01,-0.03,-0.05,0.06
24.766,0.04,0.04,-0.02,0.06
24.776,0.08,0.07,0.11,0.15
24.786,0.08,0.04,0.28,0.29
24.796,0.03,0.00,0.09,0.10
24.806,0.03,-0.02,-0.06,0.07
24.816,-0.01,-0.03,-0.08,0.09
24.826,-0.07,-0.03,-0.05,0.09
24.836,-0.07,-0.01,-0.01,0.07
24.846,-0.04,-0.00,0.04,0.06
24.856,-0.03,-0.00,0.17,0.17
24.866,-0.01,0.02,0.15,0.15
24.876,0.03,0.04,-0.04,0.06
24.886,0.06,0.05,-0.09,0.12
24.896,0.06,0.11,0.07,0.14
24.906,0.02,0.17,0.13,0.21
24.916,0.00,0.19,0.18,0.26
24.926,-0.01,0.18,0.32,0.36
24.936,-0.08,0.17,0.23,0.30
24.946,-0.11,0.15,0.07,0.20
24.956,-0.09,0.12,0.04,0.16
24.966,-0.08,0.12,0.06,0.16
24.976,-0.05,0.12,0.11,0.17
24.986,-0.05,0.10,0.15,0.18
24.996,-0.05,0.11,0.13,0.18
25.006,-0.06,0.13,0.14,0.20
25.016,-0.08,0.15,0.19,0.25
25.025,-0.08,0.12,0.09,0.17
25.036,-0.08,0.06,-0.01,0.11
25.045,-0.07,0.01,0.00,0.07
25.056,-0.07,-0.03,0.01,0.08
25.065,-0.04,-0.07,0.09,0.11
25.075,-0.01,-0.09,0.05,0.10
25.085,0.01,-0.09,-0.10,0.13
25.095,0.03,-0.09,-0.10,0.14
25.105,0.01,-0.06,0.02,0.06
25.115,-0.02,-0.02,0.15,0.16
25.125,-0.00,-0.00,0.08,0.08
25.135,0.03,0.00,-0.02,0.04
25.145,0.05,0.04,-0.02,0.07
25.155,0.01,0.04,0.12,0.13
25.165,-0.01,0.06,0.26,0.27
25.175,-0.04,0.07,0.14,0.16
25.185,-0.03,0.04,-0.01,0.05
25.195,-0.07,0.02,-0.03,0.08
25.205,-0.09,0.03,0.01,0.10
25.215,-0.09,0.04,0.04,0.11
25.225,-0.07,0.05,0.20,0.21
25.235,-0.06,0.08,0.26,0.28
25.245,-0.07,0.07,0.01,0.10
25.255,-0.03,0.05,-0.10,0.11
25.265,-0.02,0.03,-0.06,0.07
25.275,-0.04,0.03,-0.00,0.04
25.285,-0.03,0.01,0.05,0.06
25.295,-0.03,-0.00,0.14,0.15
25.305,-0.05,0.00,0.19,0.19
25.315,-0.04,0.02,0.07,0.08
25.325,-0.01,0.03,-0.04,0.05
25.335,0.03,0.02,-0.06,0.07
25.345,0.03,0.02,0.02,0.04
25.355,-0.00,0.03,0.12,0.13
25.365,-0.04,0.03,0.19,0.20
25.375,-0.09,0.00,0.09,0.12
25.385,-0.08,-0.04,-0.00,0.09
25.395,-0.10,-0.01,-0.00,0.10
25.405,-0.08,0.05,0.02,0.10
25.415,-0.04,0.05,0.06,0.08
25.425,-0.01,0.05,0.07,0.09
25.435,0.00,0.05,0.08,0.10
25.445,-0.03,0.04,0.09,0.10
25.455,-0.08,0.03,0.12,0.15
25.465,-0.13,0.01,0.13,0.18
25.475,-0.15,-0.00,0.13,0.20
25.484,-0.16,0.02,0.12,0.20
25.495,-0.10,0.04,0.05,0.12
25.504,-0.04,0.06,0.00,0.07
25.515,0.01,0.09,0.16,0.18
25.524,0.01,0.06,0.15,0.17
25.534,-0.02,0.01,-0.06,0.06
25.544,-0.01,-0.04,-0.12,0.13
25.554,-0.03,-0.02,-0.09,0.10
25.564,-0.03,0.02,-0.04,0.06
25.574,-0.03,0.04,0.10,0.11
25.584,-0.06,0.06,0.32,0.33
25.594,-0.10,0.07,0.15,0.19
25.604,-0.04,0.06,-0.04,0.08
25.614,-0.00,0.07,0.01,0.07
25.624,0.00,0.10,0.05,0.11
25.634,0.02,0.08,0.05,0.09
25.644,0.01,0.08,0.06,0.10
25.654,-0.03,0.06,0.17,0.18
25.664,-0.05,0.05,0.19,0.20
25.674,-0.06,0.02,-0.07,0.09
25.684,-0.02,-0.02,-0.09,0.10
25.694,-0.03,-0.01,0.04,0.05
25.704,-0.03,0.02,0.04,0.05
25.714,-0.02,0.03,-0.01,0.04
25.724,-0.04,0.04,0.04,0.07
25.734,-0.06,0.05,0.10,0.13
25.744,-0.07,0.07,0.18,0.20
25.754,-0.02,0.06,0.16,0.17
25.764,-0.03,0.03,0.01,0.05
25.774,-0.02,0.02,0.02,0.03
25.784,-0.05,0.01,0.18,0.19
25.794,-0.05,-0.00,0.23,0.23
25.804,-0.08,-0.01,0.01,0.08
25.814,-0.05,-0.01,-0.10,0.11
25.824,-0.04,-0.01,-0.04,0.06
25.834,-0.03,0.04,0.04,0.06
25.844,0.00,0.06,0.18,0.19
25.854,-0.05,0.04,0.23,0.24
25.864,-0.07,0.02,0.02,0.07
25.874,-0.03,0.04,-0.07,0.08
25.884,-0.01,0.04,-0.03,0.06
25.894,-0.01,0.06,0.02,0.07
25.904,-0.00,0.08,0.06,0.10
25.914,0.00,0.08,0.17,0.19
25.923,-0.06,0.08,0.27,0.29
25.934,-0.07,0.06,0.14,0.17
25.944,-0.04,0.04,-0.01,0.06
25.953,-0.05,0.03,0.02,0.07
25.964,-0.06,0.08,0.17,0.19
25.973,-0.06,0.06,0.22,0.24
25.983,-0.06,0.03,0.16,0.18
25.993,-0.04,0.01,-0.00,0.04
26.003,-0.05,-0.01,-0.06,0.08
26.013,-0.05,0.03,-0.03,0.06
26.023,-0.04,0.04,-0.00,0.06
26.033,-0.04,0.05,0.03,0.07
26.043,-0.07,0.07,0.05,0.11
26.053,-0.06,0.08,0.04,0.11
26.063,-0.08,0.07,0.12,0.16
26.073,-0.09,0.05,0.22,0.24
26.083,-0.11,0.04,0.20,0.23
26.093,-0.10,-0.00,0.12,0.16
26.103,-0.07,-0.01,0.08,0.11
26.113,-0.07,0.01,0.11,0.13
26.123,-0.04,0.03,0.14,0.15
26.133,-0.02,0.01,0.10,0.11
26.143,0.00,0.02,-0.01,0.02
26.153,-0.01,0.03,0.01,0.03
26.163,0.00,0.02,0.18,0.19
26.173,-0.00,0.02,0.12,0.13
26.183,0.01,-0.00,-0.08,0.08
26.193,-0.00,-0.03,-0.13,0.13
26.203,-0.04,-0.02,-0.05,0.07
26.213,-0.06,0.00,0.03,0.06
26.223,-0.09,0.02,0.19,0.21
26.233,-0.12,0.03,0.19,0.23
26.243,-0.12,0.05,0.02,0.13
26.253,-0.10,0.03,-0.00,0.10
26.263,-0.09,0.07,0.07,0.13
26.273,-0.07,0.11,0.14,0.20
26.283,-0.04,0.14,0.15,0.21
26.293,-0.06,0.14,0.09,0.18
26.303,-0.07,0.11,0.11,0.17
26.313,-0.09,0.07,0.12,0.16
26.323,-0.09,0.03,0.08,0.12
26.333,-0.07,0.01,0.08,0.11
26.343,-0.06,-0.01,0.09,0.10
26.353,-0.05,-0.04,0.03,0.07
26.363,-0.05,-0.04,0.02,0.07
26.373,-0.04,-0.02,-0.01,0.05
26.382,-0.04,-0.03,-0.05,0.07
26.393,-0.05,0.00,-0.02,0.05
26.402,-0.04,0.02,0.05,0.06
26.412,-0.05,0.04,0.11,0.13
26.422,-0.05,0.06,0.08,0.11
26.432,-0.04,0.07,0.07,0.11
26.442,-0.04,0.09,0.12,0.16
26.452,-0.03,0.11,0.18,0.21
26.462,-0.03,0.10,0.06,0.12
26.472,-0.02,0.07,0.06,0.10
26.482,-0.05,0.06,0.17,0.19
26.492,-0.05,0.07,0.17,0.19
26.502,-0.04,0.06,0.05,0.09
26.512,-0.01,0.05,-0.05,0.07
26.522,-0.03,0.01,0.03,0.04
26.532,-0.04,0.03,0.18,0.19
26.542,-0.01,0.04,0.14,0.14
26.552,0.01,0.02,-0.09,0.09
26.562,0.03,-0.02,-0.08,0.09
26.572,-0.01,-0.02,0.00,0.02
26.582,-0.04,-0.03,0.11,0.12
26.592,-0.05,0.01,0.15,0.15
26.602,-0.03,0.03,0.04,0.06
26.612,-0.01,0.01,-0.02,0.03
26.622,-0.04,-0.01,0.07,0.08
26.632,-0.06,0.01,0.15,0.17
26.642,-0.04,0.01,0.09,0.10
26.652,-0.00,0.01,0.01,0.01
26.662,-0.02,0.01,0.01,0.03
26.672,-0.04,0.04,0.09,0.11
26.682,-0.03,0.05,0.13,0.15
26.692,-0.03,0.03,0.06,0.08
26.702,-0.02,0.02,0.00,0.03
26.712,-0.00,0.04,0.02,0.05
26.722,0.01,0.05,0.09,0.11
26.732,0.07,0.09,0.15,0.19
26.742,0.07,0.07,0.12,0.16
26.752,0.01,0.01,0.09,0.09
26.762,-0.04,-0.01,0.13,0.13
26.772,-0.09,-0.02,0.14,0.17
26.782,-0.12,-0.02,0.10,0.15
26.792,-0.09,-0.00,0.09,0.13
26.802,-0.08,0.02,0.07,0.11
26.812,-0.05,0.02,0.06,0.09
26.822,-0.02,0.04,0.05,0.07
26.832,-0.01,0.05,0.06,0.08
26.842,-0.02,0.05,0.05,0.07
26.852,-0.02,0.03,-0.01,0.04
26.861,-0.06,0.03,0.01,0.07
26.872,-0.09,0.05,0.06,0.11
26.882,-0.11,0.04,0.06,0.13
26.891,-0.12,0.02,0.07,0.14
26.901,-0.13,0.02,0.08,0.16
26.911,-0.13,0.01,0.08,0.15
26.921,-0.11,0.02,0.05,0.12
26.931,-0.07,0.06,0.04,0.10
26.941,-0.06,0.10,0.06,0.13
26.951,-0.04,0.12,0.08,0.15
26.961,-0.04,0.12,0.03,0.13
26.971,-0.04,0.11,0.06,0.13
26.981,-0.04,0.13,0.12,0.19
26.991,-0.06,0.12,0.13,0.19
27.001,-0.07,0.10,0.10,0.16
27.011,-0.08,0.06,0.11,0.14
27.021,-0.11,0.04,0.06,0.13
27.031,-0.10,0.05,0.07,0.13
27.041,-0.07,0.04,0.08,0.11
27.051,-0.06,0.04,0.07,0.10
27.061,-0.03,0.02,0.07,0.08
27.071,-0.03,0.03,0.07,0.08
27.081,-0.01,0.03,0.04,0.05
27.091,-0.01,0.03,0.03,0.04
27.101,0.02,0.00,0.02,0.03
27.111,0.01,0.00,0.05,0.05
27.121,0.00,0.02,0.05,0.05
27.131,0.00,0.04,0.07,0.08
27.141,0.01,0.07,0.08,0.11
27.151,0.00,0.09,0.10,0.14
27.161,0.00,0.11,0.10,0.15
27.171,0.00,0.10,0.14,0.17
27.181,-0.00,0.11,0.17,0.20
27.191,-0.01,0.10,0.21,0.23
27.201,-0.01,0.08,0.20,0.22
27.211,0.01,0.05,0.11,0.12
27.221,-0.00,0.01,0.04,0.04
27.231,-0.00,0.01,0.07,0.07
27.241,-0.03,-0.00,0.11,0.11
27.251,-0.04,-0.03,0.04,0.06
27.261,-0.07,0.07,0.02,0.10
27.271,-0.02,0.01,0.05,0.05
27.280,0.02,-0.08,-0.07,0.11
27.291,-0.04,-0.08,-0.09,0.13
27.300,-0.11,-0.06,-0.03,0.12
27.311,-0.13,-0.08,-0.05,0.16
27.320,-0.11,-0.12,-0.07,0.18
27.331,-0.14,-0.09,-0.01,0.17
27.341,-0.15,-0.08,-0.07,0.19
27.350,-0.10,-0.07,0.02,0.12
27.360,-0.09,-0.02,0.04,0.09
27.370,-0.05,0.02,0.04,0.07
27.380,0.01,0.06,0.05,0.07
27.390,0.04,0.09,0.09,0.13
27.400,0.04,0.10,0.07,0.13
27.410,0.04,0.07,0.12,0.14
27.420,0.00,0.05,0.18,0.19
27.430,-0.08,0.04,0.13,0.16
27.440,-0.11,0.02,0.10,0.15
27.450,-0.13,0.02,0.11,0.17
27.460,-0.11,0.04,0.08,0.14
27.470,-0.07,0.08,0.03,0.11
27.480,-0.01,0.09,0.04,0.10
27.490,-0.01,0.12,0.12,0.16
27.500,-0.01,0.15,0.12,0.19
27.510,0.01,0.11,0.10,0.15
27.520,-0.00,0.06,0.12,0.13
27.530,-0.05,0.01,0.10,0.11
27.540,-0.10,-0.08,0.09,0.16
27.550,-0.13,-0.11,0.08,0.19
27.560,-0.12,-0.10,0.03,0.16
27.570,-0.11,-0.08,0.04,0.14
27.580,-0.08,-0.02,0.01,0.08
27.590,-0.04,0.02,-0.01,0.05
27.600,-0.00,0.06,0.06,0.08
27.610,-0.00,0.10,0.08,0.13
27.620,0.01,0.10,0.05,0.12
27.630,0.03,0.08,0.04,0.10
27.640,0.01,0.07,0.07,0.10
27.650,-0.01,0.06,0.08,0.10
27.660,-0.02,0.01,0.08,0.08
27.670,-0.06,-0.04,0.05,0.08
27.680,-0.03,0.02,0.10,0.11
27.690,0.01,0.02,0.03,0.04
27.700,0.04,-0.01,0.01,0.05
27.710,0.05,0.03,0.13,0.14
27.720,0.04,0.11,0.16,0.20
27.730,0.09,0.11,0.10,0.17
27.740,0.12,0.11,0.11,0.20
27.750,0.07,0.13,0.14,0.20
27.760,0.02,0.11,0.15,0.18
27.770,-0.00,0.10,0.12,0.15
27.780,-0.03,0.07,0.11,0.13
27.790,-0.08,0.03,0.07,0.11
27.799,-0.12,0.02,0.03,0.12
27.809,-0.14,-0.03,-0.02,0.15
27.819,-0.17,-0.07,-0.01,0.19
27.829,-0.15,-0.07,-0.01,0.17
27.839,-0.12,-0.04,-0.05,0.14
27.849,-0.09,-0.03,0.02,0.09
27.859,-0.08,0.03,0.06,0.10
27.869,-0.07,0.05,0.05,0.10
27.879,-0.05,0.03,0.10,0.11
27.889,-0.06,0.02,0.16,0.17
27.899,-0.05,0.04,0.21,0.22
27.909,-0.02,0.06,0.16,0.17
27.919,0.00,0.04,0.08,0.09
27.929,0.02,0.05,0.04,0.07
27.939,0.05,0.05,0.07,0.09
27.949,0.04,0.03,0.10,0.11
27.959,0.00,0.01,0.07,0.07
27.969,-0.05,-0.02,0.02,0.06
27.979,-0.09,-0.05,0.07,0.13
27.989,-0.13,-0.04,0.08,0.16
27.999,-0.15,-0.06,0.09,0.19
28.009,-0.14,-0.05,0.04,0.16
28.019,-0.09,-0.04,0.01,0.10
28.029,-0.03,-0.00,-0.01,0.03
28.039,0.01,0.03,-0.04,0.05
28.049,0.01,0.08,0.01,0.08
28.059,0.02,0.06,0.10,0.12
28.069,0.00,0.08,0.12,0.15
28.079,-0.05,0.09,0.17,0.20
28.089,-0.13,0.07,0.16,0.22
28.099,-0.14,0.02,0.16,0.22
28.109,-0.14,0.03,0.15,0.21
28.119,-0.10,0.02,0.07,0.13
28.129,-0.02,-0.01,-0.00,0.02
28.139,0.03,0.01,0.01,0.04
28.149,0.07,0.05,0.06,0.11
28.159,0.05,0.03,0.04,0.07
28.169,0.05,0.01,0.00,0.05
28.179,0.02,0.01,0.02,0.03
28.189,-0.03,0.01,0.05,0.06
28.198,-0.06,0.01,0.05,0.08
28.209,-0.07,-0.02,0.00,0.08
28.219,-0.11,-0.05,0.00,0.13
28.229,-0.12,-0.05,0.05,0.14
28.238,-0.09,-0.04,0.07,0.13
28.249,-0.06,0.01,0.02,0.06
28.258,-0.05,0.05,-0.02,0.07
28.268,-0.06,0.06,0.03,0.09
28.279,-0.06,0.10,0.08,0.14
28.288,-0.07,0.12,0.03,0.14
28.299,-0.06,0.13,0.02,0.15
28.308,-0.08,0.15,0.19,0.25
28.318,-0.09,0.19,0.32,0.39
28.328,-0.08,0.18,0.16,0.25
28.338,-0.03,0.14,-0.02,0.14
28.348,-0.03,0.08,-0.01,0.09
28.358,-0.07,0.04,0.12,0.15
28.368,-0.09,-0.00,0.24,0.26
28.378,-0.08,0.03,0.15,0.17
28.388,-0.03,0.05,-0.07,0.09
28.398,0.01,0.04,-0.08,0.09
28.408,0.03,0.05,0.00,0.06
28.418,0.03,0.05,0.04,0.08
28.428,0.02,0.01,0.03,0.04
28.438,-0.01,-0.03,0.03,0.05
28.448,-0.05,-0.07,0.12,0.15
28.458,-0.06,-0.06,0.16,0.18
28.468,-0.03,-0.05,0.12,0.13
28.478,-0.01,-0.01,0.05,0.05
28.488,0.02,0.01,-0.00,0.02
28.498,0.04,0.05,0.03,0.07
28.508,0.05,0.09,0.12,0.16
28.518,0.05,0.15,0.12,0.19
28.528,0.03,0.15,0.07,0.17
28.538,-0.01,0.14,0.09,0.16
28.548,-0.05,0.09,0.11,0.15
28.558,-0.08,0.04,0.04,0.10
28.568,-0.13,-0.04,-0.00,0.14
28.578,-0.16,-0.05,-0.00,0.16
28.588,-0.13,-0.02,0.03,0.13
28.598,-0.06,0.01,0.04,0.08
28.608,-0.02,0.05,0.06,0.08
28.618,-0.02,0.08,0.08,0.11
28.628,-0.03,0.09,0.16,0.19
28.638,-0.05,0.08,0.13,0.16
28.648,-0.05,0.07,0.05,0.10
28.658,-0.05,0.07,0.05,0.10
28.668,-0.02,0.10,0.17,0.20
28.678,0.02,0.10,0.19,0.22
28.688,0.07,0.08,-0.01,0.11
28.698,0.12,0.05,-0.07,0.15
28.708,0.07,0.07,-0.02,0.11
28.717,0.03,0.09,0.10,0.14
28.727,-0.03,0.07,0.26,0.27
28.737,-0.11,0.06,0.19,0.23
28.747,-0.13,0.05,0.04,0.14
28.757,-0.09,0.06,0.02,0.11
28.767,-0.08,0.10,0.02,0.13
28.778,-0.04,0.08,0.08,0.12
28.787,-0.03,0.05,0.19,0.20
28.797,-0.04,0.02,0.14,0.15
28.807,-0.04,0.01,-0.05,0.06
28.817,0.00,-0.00,-0.11,0.11
28.827,0.01,0.01,-0.05,0.06
28.837,0.00,0.03,0.02,0.04
28.847,-0.05,0.01,0.13,0.14
28.857,-0.09,0.01,0.15,0.17
28.867,-0.09,0.04,0.08,0.12
28.877,-0.07,0.06,0.01,0.09
28.887,-0.05,0.07,0.03,0.09
28.897,-0.03,0.05,0.11,0.13
28.907,-0.04,0.05,0.20,0.21
28.917,-0.02,0.02,0.12,0.12
28.927,0.00,0.03,-0.01,0.03
28.937,0.01,0.03,-0.04,0.05
28.947,-0.00,0.04,0.04,0.06
28.957,-0.02,0.05,0.10,0.11
28.967,-0.06,0.02,0.07,0.10
28.977,-0.07,0.01,0.10,0.12
28.987,-0.08,0.02,0.12,0.15
28.997,-0.11,0.02,0.13,0.17
29.007,-0.09,0.04,0.10,0.14
29.017,-0.08,0.02,0.01,0.08
29.027,-0.07,0.01,-0.03,0.08
29.037,-0.07,0.01,0.00,0.07
29.047,-0.06,0.02,0.08,0.10
29.057,-0.05,0.03,0.10,0.11
29.067,-0.06,0.01,0.02,0.06
29.077,-0.06,-0.01,-0.03,0.07
29.087,-0.06,-0.01,0.02,0.07
29.097,-0.10,0.00,0.17,0.19
29.107,-0.09,0.06,0.23,0.26
29.117,-0.04,0.06,0.05,0.09
29.127,-0.01,0.02,-0.06,0.06
29.137,-0.02,0.00,-0.01,0.02
29.147,-0.03,0.00,0.11,0.12
29.157,-0.06,-0.02,0.21,0.22
29.167,-0.07,-0.01,0.15,0.17
29.177,-0.08,0.01,0.03,0.08
29.187,-0.07,0.01,0.02,0.07
29.196,-0.08,0.02,0.08,0.12
29.206,-0.08,0.05,0.10,0.14
29.216,-0.05,0.03,0.15,0.16
29.226,-0.04,0.06,0.07,0.10
29.236,-0.05,0.05,0.08,0.10
29.246,-0.04,0.07,0.14,0.16
29.256,-0.04,0.08,-0.00,0.09
29.266,-0.01,0.03,-0.02,0.03
29.276,-0.04,0.00,0.03,0.05
29.286,-0.07,-0.00,0.07,0.10
29.296,-0.08,0.01,0.08,0.11
29.306,-0.05,0.02,0.05,0.07
29.316,-0.04,0.03,0.00,0.05
29.326,-0.01,0.04,-0.01,0.04
29.336,0.02,0.04,0.07,0.09
29.346,0.02,0.05,0.24,0.25
29.356,0.01,0.07,0.17,0.18
29.366,0.02,0.02,0.03,0.04
29.376,-0.01,0.01,0.04,0.04
29.386,-0.03,0.04,0.11,0.12
29.396,-0.04,0.03,0.16,0.17
29.406,-0.04,0.02,0.17,0.17
29.416,-0.06,0.01,0.10,0.11
29.426,-0.06,0.03,0.05,0.09
29.436,-0.05,0.05,0.02,0.07
29.446,-0.05,0.04,0.04,0.07
29.456,-0.07,0.02,0.07,0.10
29.466,-0.06,-0.01,0.06,0.09
29.476,-0.06,0.00,0.03,0.07
29.486,-0.07,0.03,0.04,0.08
29.496,-0.10,0.03,0.04,0.11
29.506,-0.09,0.01,0.05,0.11
29.516,-0.09,0.03,0.10,0.14
29.526,-0.08,0.04,0.06,0.11
29.536,-0.04,0.04,0.04,0.07
29.546,-0.03,0.05,0.07,0.09
29.556,-0.02,0.08,0.09,0.12
29.566,0.00,0.06,0.08,0.10
29.576,0.01,0.03,0.09,0.10
29.586,-0.00,0.01,0.12,0.12
29.596,-0.00,0.02,0.08,0.08
29.606,-0.00,0.02,-0.01,0.02
29.616,-0.00,-0.01,0.02,0.02
29.625,-0.03,-0.01,0.04,0.06
29.635,-0.04,0.02,0.08,0.09
29.646,-0.04,0.04,0.09,0.11
29.656,-0.03,0.07,0.06,0.10
29.665,-0.04,0.07,0.06,0.10
29.676,-0.03,0.08,0.10,0.13
29.685,-0.05,0.06,0.06,0.10
29.695,-0.06,0.04,0.05,0.09
29.705,-0.04,0.01,0.14,0.15
29.715,-0.04,0.02,0.12,0.13
29.725,-0.04,0.02,0.01,0.05
29.735,-0.05,0.00,0.01,0.05
29.745,-0.06,0.02,0.10,0.11
29.755,-0.05,0.03,0.12,0.13
29.765,-0.07,0.03,0.02,0.07
29.775,-0.04,-0.01,0.01,0.05
29.785,-0.04,-0.00,0.13,0.13
29.795,-0.05,0.02,0.08,0.10
29.805,-0.03,-0.01,-0.01,0.03
29.815,-0.03,0.00,0.06,0.07
29.825,-0.03,0.03,0.12,0.12
29.835,-0.02,0.03,0.06,0.07
29.845,-0.00,0.02,0.04,0.04
29.855,-0.04,0.03,0.06,0.08
29.865,-0.07,0.03,0.08,0.11
29.875,-0.07,0.03,0.07,0.10
29.885,-0.07,0.02,0.06,0.09
29.895,-0.07,0.02,0.08,0.11
29.905,-0.06,0.03,0.09,0.11
29.915,-0.07,-0.01,0.02,0.08
29.925,-0.07,-0.03,-0.01,0.07
29.935,-0.06,-0.03,0.04,0.08
29.945,-0.06,-0.02,0.12,0.14
29.955,-0.06,0.02,0.10,0.12
29.965,-0.03,0.05,0.03,0.06
29.975,0.00,0.07,0.01,0.07
29.985,-0.02,0.05,0.07,0.09
29.995,-0.05,0.01,0.09,0.10
30.005,-0.06,-0.03,0.10,0.12
30.015,-0.05,-0.04,0.10,0.12
30.025,-0.06,-0.04,0.05,0.09
30.035,-0.06,-0.04,0.04,0.08
30.045,-0.05,-0.02,0.08,0.09
30.055,-0.05,0.03,0.07,0.09
30.065,-0.03,0.06,0.04,0.08
30.075,-0.02,0.08,0.04,0.09
30.084,-0.04,0.07,0.08,0.12
30.094,-0.05,0.08,0.11,0.15
30.104,-0.04,0.08,0.05,0.10
30.114,-0.02,0.06,0.03,0.07
30.124,-0.02,0.08,0.10,0.13
30.134,-0.02,0.08,0.11,0.14
30.144,-0.03,0.09,0.07,0.12
30.154,-0.03,0.08,0.05,0.10
30.164,-0.04,0.09,0.13,0.16
30.174,-0.07,0.09,0.15,0.19
30.184,-0.07,0.07,0.08,0.13
30.194,-0.05,0.05,0.01,0.08
30.204,-0.06,0.02,0.04,0.08
30.214,-0.07,0.01,0.10,0.12
30.224,-0.02,0.00,0.03,0.04
30.234,0.02,-0.02,-0.09,0.09
30.244,0.02,-0.03,-0.07,0.08
30.254,0.01,-0.03,0.14,0.14
30.264,-0.02,-0.01,0.19,0.20
30.274,-0.00,0.01,-0.02,0.02
30.284,0.01,-0.00,-0.07,0.07
30.294,-0.01,0.03,0.02,0.04
30.304,-0.04,0.04,0.17,0.18
30.314,-0.05,0.01,0.31,0.31
30.324,-0.05,0.01,0.18,0.18
30.334,-0.04,0.01,-0.02,0.05
30.344,0.01,0.03,-0.07,0.08
30.354,0.04,0.04,-0.01,0.05
30.364,0.04,0.04,0.03,0.07
30.374,0.01,0.05,0.13,0.13
30.384,-0.05,0.04,0.20,0.21
30.394,-0.06,0.05,0.12,0.15
30.404,-0.07,0.05,0.02,0.09
30.414,-0.05,0.07,0.04,0.09
30.424,-0.06,0.07,0.08,0.13
30.434,-0.07,0.06,0.21,0.23
30.444,-0.11,0.06,0.37,0.39
30.454,-0.11,0.06,0.19,0.23
30.464,-0.08,0.01,-0.02,0.09
30.474,-0.05,-0.01,-0.07,0.09
30.484,-0.02,0.01,-0.01,0.02
30.494,-0.00,0.04,-0.04,0.06
30.504,-0.01,0.00,-0.04,0.04
30.514,-0.04,-0.03,0.07,0.09
30.524,-0.09,-0.01,0.12,0.15
30.534,-0.09,0.00,0.10,0.13
30.544,-0.09,-0.02,0.02,0.09
30.553,-0.06,-0.04,0.05,0.08
30.564,-0.05,-0.01,0.13,0.14
30.573,-0.06,0.01,0.15,0.16
30.583,-0.06,0.04,0.14,0.16
30.593,-0.06,0.04,0.10,0.12
30.603,-0.03,0.06,0.00,0.07
30.613,0.00,0.07,-0.01,0.07
30.624,0.03,0.07,0.04,0.09
30.633,0.02,0.04,0.06,0.08
30.643,-0.02,-0.01,0.11,0.11
30.653,-0.10,-0.01,0.13,0.16
30.663,-0.14,0.01,0.19,0.23
30.673,-0.14,0.04,0.20,0.25
30.683,-0.14,0.05,0.08,0.17
30.693,-0.10,0.04,0.02,0.11
30.703,-0.07,0.05,0.04,0.10
30.713,-0.04,0.04,0.02,0.06
30.723,-0.03,0.03,-0.00,0.04
30.733,-0.02,-0.04,-0.02,0.04
30.743,-0.03,-0.06,-0.02,0.07
30.753,-0.01,-0.05,-0.01,0.06
30.763,-0.03,-0.04,-0.01,0.05
30.773,-0.03,-0.01,0.02,0.04
30.783,-0.02,-0.00,0.02,0.03
30.793,-0.04,0.03,0.06,0.08
30.803,-0.05,0.07,0.07,0.11
30.813,-0.03,0.10,0.16,0.19
30.823,-0.05,0.10,0.17,0.20
30.833,-0.05,0.08,0.10,0.14
30.843,-0.04,0.07,0.07,0.11
30.853,-0.04,0.05,0.04,0.08
30.863,-0.02,0.03,0.02,0.04
30.873,0.00,-0.00,0.01,0.01
30.883,-0.01,-0.02,0.04,0.04
30.893,-0.00,0.00,0.03,0.03
30.903,0.00,0.01,0.01,0.01
30.913,-0.02,0.03,-0.00,0.04
30.923,-0.04,0.02,0.10,0.12
30.933,-0.09,0.04,0.17,0.20
30.943,-0.10,0.04,0.12,0.15
30.953,-0.08,0.02,0.12,0.14
30.963,-0.05,0.08,0.12,0.15
30.973,0.02,0.09,0.10,0.14
30.983,0.02,0.06,0.06,0.08
30.993,0.01,0.06,0.03,0.07
31.003,0.01,0.02,0.06,0.06
31.013,-0.03,0.00,0.02,0.03
31.023,-0.04,-0.02,-0.03,0.05
31.032,-0.08,-0.04,-0.00,0.09
31.042,-0.10,-0.04,0.11,0.15
31.052,-0.07,-0.01,0.08,0.11
31.062,-0.06,0.00,-0.03,0.06
31.072,-0.04,-0.00,-0.02,0.05
31.082,-0.04,0.01,0.12,0.13
31.092,-0.03,0.05,0.19,0.20
31.102,0.01,0.05,0.04,0.07
31.112,0.01,0.03,-0.04,0.05
31.122,-0.02,0.01,0.03,0.03
31.132,-0.06,0.02,0.16,0.18
31.142,-0.05,0.04,0.16,0.17
31.152,-0.02,0.04,0.01,0.05
31.162,-0.02,0.02,-0.03,0.04
31.172,-0.03,0.01,0.05,0.06
31.182,-0.07,0.02,0.24,0.25
31.192,-0.10,0.02,0.30,0.31
31.202,-0.07,0.06,0.04,0.10
31.212,-0.04,0.04,-0.09,0.11
31.222,-0.00,0.05,-0.04,0.07
31.232,0.01,0.07,-0.00,0.07
31.242,0.01,0.06,0.09,0.10
31.252,-0.00,0.04,0.31,0.32
31.262,-0.03,0.05,0.30,0.30
31.272,-0.05,0.02,0.01,0.05
31.282,-0.04,-0.02,-0.12,0.13
31.292,-0.06,0.00,-0.03,0.07
31.302,-0.07,0.04,0.05,0.09
31.312,-0.06,0.04,0.11,0.13
31.322,-0.08,0.05,0.13,0.16
31.332,-0.07,0.07,0.09,0.13
31.342,-0.03,0.09,0.04,0.11
31.352,-0.02,0.10,0.06,0.12
31.362,-0.03,0.07,0.18,0.19
31.372,-0.03,0.04,0.08,0.09
31.382,-0.01,0.00,0.01,0.02
31.392,-0.02,-0.03,0.01,0.03
31.402,-0.03,0.01,0.00,0.03
31.412,-0.02,0.04,-0.03,0.05
31.422,-0.01,0.04,0.01,0.04
31.432,-0.01,0.07,0.10,0.12
31.442,-0.03,0.07,0.08,0.11
31.451,-0.04,0.08,0.05,0.10
31.462,-0.06,0.08,0.13,0.16
31.472,-0.08,0.12,0.25,0.29
31.481,-0.04,0.09,0.13,0.17
31.491,0.00,0.03,-0.04,0.05
31.502,0.01,0.02,-0.02,0.03
31.511,-0.02,0.02,0.03,0.04
31.522,-0.02,0.02,0.20,0.20
31.531,-0.01,-0.00,0.25,0.25
31.542,-0.04,-0.02,-0.01,0.04
31.551,-0.04,-0.04,-0.13,0.14
31.561,-0.05,-0.02,-0.06,0.08
31.571,-0.05,0.02,0.01,0.05
31.581,-0.04,0.03,0.11,0.12
31.591,-0.05,0.04,0.25,0.26
31.601,-0.08,0.04,0.12,0.15
31.611,-0.05,0.01,-0.03,0.06
31.621,-0.04,-0.01,-0.02,0.05
31.631,-0.05,0.00,0.04,0.07
31.641,-0.04,0.01,0.07,0.08
31.651,-0.05,0.02,0.10,0.12
31.661,-0.04,0.05,0.10,0.13
31.671,-0.03,0.05,0.05,0.08
31.681,-0.04,0.02,0.04,0.06
31.691,-0.06,0.01,0.16,0.17
31.701,-0.07,0.01,0.25,0.26
31.711,-0.06,0.04,0.16,0.17
31.721,-0.05,0.02,-0.02,0.06
31.731,-0.03,-0.03,-0.02,0.04
31.741,-0.03,-0.02,0.08,0.09
31.751,-0.04,0.01,0.12,0.13
31.761,-0.05,-0.01,0.07,0.08
31.771,-0.05,-0.02,0.01,0.06
31.781,-0.05,-0.00,0.06,0.08
31.791,-0.03,-0.01,0.04,0.05
31.801,-0.03,-0.02,0.00,0.04
31.811,-0.05,-0.04,0.01,0.07
31.821,-0.08,-0.01,0.09,0.12
31.831,-0.09,0.01,0.21,0.23
31.841,-0.07,0.03,0.10,0.12
31.851,-0.06,0.01,-0.07,0.09
31.861,-0.02,0.03,-0.06,0.07
31.871,0.02,0.05,0.05,0.07
31.881,0.01,0.05,0.22,0.23
31.891,-0.02,0.03,0.18,0.18
31.901,-0.04,-0.01,0.02,0.04
31.911,-0.08,-0.02,0.02,0.08
31.920,-0.12,0.01,0.08,0.15
31.931,-0.13,0.03,0.26,0.29
31.940,-0.11,0.02,0.23,0.25
31.950,-0.09,-0.01,-0.02,0.10
31.960,-0.05,-0.01,-0.08,0.09
31.970,-0.04,0.04,-0.04,0.06
31.981,-0.01,0.03,-0.04,0.05
31.990,-0.01,0.00,0.07,0.07
32.000,-0.06,0.02,0.26,0.27
32.010,-0.07,0.08,0.16,0.19
32.020,-0.04,0.06,-0.08,0.10
32.030,-0.02,0.04,-0.06,0.08
32.040,-0.02,0.06,0.05,0.08
32.050,-0.04,0.06,0.11,0.13
32.060,-0.03,0.04,0.12,0.13
32.070,-0.02,0.08,0.09,0.13
32.080,-0.02,0.09,0.07,0.12
32.090,-0.04,0.11,0.16,0.19
32.100,-0.05,0.08,0.18,0.21
32.110,-0.05,0.03,0.03,0.06
32.120,-0.04,-0.04,-0.05,0.07
32.130,-0.02,-0.03,-0.04,0.06
32.140,-0.03,-0.02,-0.01,0.03
32.150,-0.03,-0.05,0.07,0.10
32.160,-0.04,0.00,0.15,0.15
32.170,-0.05,0.00,0.06,0.08
32.180,-0.05,0.01,-0.03,0.06
32.190,-0.02,0.05,0.01,0.06
32.200,-0.02,0.08,0.13,0.15
32.210,-0.03,0.07,0.11,0.13
32.220,-0.02,0.03,0.09,0.10
32.230,-0.05,0.05,0.07,0.10
32.240,-0.03,0.09,0.06,0.12
32.250,-0.01,0.10,0.08,0.13
32.260,-0.03,0.09,0.12,0.15
32.270,-0.07,0.06,0.10,0.14
32.280,-0.07,0.02,0.06,0.09
32.290,-0.06,0.01,0.05,0.08
32.300,-0.06,0.03,0.12,0.14
32.310,-0.06,0.04,0.14,0.16
32.320,-0.04,0.05,0.05,0.08
32.330,-0.03,0.02,-0.01,0.03
32.340,-0.02,0.03,0.05,0.06
32.350,-0.04,0.02,0.14,0.14
32.360,-0.05,0.02,0.13,0.14
32.369,-0.05,-0.02,0.01,0.06
32.380,-0.05,-0.02,-0.04,0.06
32.390,-0.03,0.00,0.04,0.06
32.400,-0.02,0.01,0.14,0.15
32.410,-0.04,-0.00,0.08,0.09
32.420,-0.01,-0.03,-0.02,0.04
32.429,0.01,-0.04,-0.01,0.04
32.440,-0.02,-0.03,0.05,0.06
32.450,-0.05,-0.03,0.09,0.11
32.459,-0.05,-0.02,0.10,0.11
32.469,-0.05,0.01,0.07,0.09
32.479,-0.06,0.04,0.07,0.10
32.489,-0.02,0.06,0.03,0.07
32.499,0.01,0.05,0.08,0.10
32.509,0.00,0.05,0.13,0.14
32.519,-0.01,0.02,0.09,0.09
32.529,-0.02,-0.03,0.04,0.06
32.539,-0.05,-0.02,0.01,0.06
32.549,-0.08,-0.02,0.03,0.09
32.559,-0.11,-0.02,0.13,0.17
32.569,-0.16,-0.03,0.18,0.24
32.579,-0.14,-0.02,0.13,0.19
32.589,-0.11,0.00,0.08,0.14
32.599,-0.05,0.04,-0.00,0.07
32.609,-0.02,0.05,-0.02,0.06
32.619,0.01,0.04,-0.02,0.04
32.629,-0.01,0.03,0.06,0.07
32.639,-0.03,0.03,0.13,0.14
32.649,-0.03,0.02,0.08,0.09
32.659,-0.04,0.01,-0.02,0.05
32.669,-0.06,0.02,-0.01,0.06
32.679,-0.07,0.06,0.08,0.12
32.689,-0.07,0.04,0.15,0.17
32.699,-0.07,0.04,0.11,0.14
32.709,-0.07,0.04,0.06,0.10
32.719,-0.05,0.07,0.06,0.10
32.729,-0.04,0.11,0.14,0.18
32.739,-0.04,0.10,0.09,0.14
32.749,-0.01,0.05,-0.01,0.05
32.759,-0.00,-0.00,0.02,0.02
32.769,-0.02,0.01,0.09,0.09
32.779,-0.03,0.00,0.04,0.05
32.789,-0.02,-0.00,-0.04,0.05
32.799,-0.04,-0.01,0.04,0.06
32.809,-0.07,0.00,0.16,0.18
32.819,-0.05,0.05,0.11,0.13
32.829,-0.01,0.06,-0.00,0.06
32.839,-0.00,0.07,0.00,0.07
32.849,-0.04,0.08,0.06,0.11
32.859,-0.05,0.06,0.20,0.22
32.868,-0.09,0.05,0.25,0.27
32.879,-0.07,0.07,0.06,0.12
32.889,-0.03,0.06,-0.05,0.08
32.898,-0.01,0.06,0.03,0.07
32.909,-0.02,0.07,0.10,0.12
32.918,-0.04,0.02,0.08,0.09
32.928,-0.03,-0.02,0.05,0.07
32.938,-0.06,-0.01,0.06,0.09
32.948,-0.06,0.01,0.09,0.11
32.958,-0.05,0.03,0.07,0.09
32.968,-0.04,0.02,0.00,0.04
32.978,-0.02,0.00,0.02,0.03
32.988,-0.04,0.02,0.09,0.10
32.998,-0.06,0.00,0.22,0.23
33.008,-0.05,0.00,0.14,0.15
33.018,-0.05,-0.01,-0.02,0.05
33.028,-0.02,-0.01,-0.05,0.05
33.038,-0.03,-0.01,0.06,0.07
33.048,-0.04,-0.04,0.07,0.08
33.058,-0.02,-0.06,0.01,0.07
33.068,-0.05,-0.05,0.04,0.08
33.078,-0.05,-0.00,0.06,0.08
33.088,0.00,0.02,0.04,0.05
33.098,0.01,0.03,0.02,0.03
33.108,-0.03,0.01,0.03,0.04
33.118,-0.07,-0.01,0.08,0.11
33.128,-0.09,-0.00,0.19,0.21
33.138,-0.10,0.00,0.16,0.19
33.148,-0.08,0.01,0.04,0.09
33.158,-0.01,0.03,0.01,0.03
33.168,0.04,0.05,0.07,0.10
33.178,0.05,0.04,0.09,0.11
33.188,0.02,0.00,0.08,0.08
33.198,-0.01,-0.00,0.11,0.11
33.208,-0.08,-0.01,0.16,0.18
33.218,-0.14,-0.02,0.13,0.19
33.228,-0.15,-0.03,0.08,0.17
33.238,-0.12,-0.00,0.09,0.15
33.248,-0.10,0.02,0.08,0.13
33.258,-0.06,0.03,0.03,0.07
33.268,-0.02,0.03,0.01,0.04
33.278,0.02,0.03,0.02,0.04
33.288,0.02,0.02,-0.00,0.03
33.298,0.00,0.00,0.00,0.01
33.308,-0.02,0.02,0.10,0.10
33.318,-0.05,0.03,0.07,0.09
33.327,-0.05,0.02,0.01,0.06
33.338,-0.05,0.03,0.07,0.09
33.347,-0.05,0.07,0.16,0.19
33.357,-0.04,0.07,0.10,0.13
33.367,-0.03,0.06,0.05,0.08
33.377,-0.04,0.08,0.13,0.16
33.387,-0.05,0.12,0.16,0.21
33.397,-0.04,0.13,0.04,0.14
33.407,-0.00,0.09,-0.02,0.09
33.417,-0.02,0.06,0.13,0.14
33.427,-0.04,0.06,0.16,0.18
33.437,-0.04,-0.00,-0.02,0.04
33.447,-0.02,-0.02,-0.06,0.07
33.457,-0.04,-0.01,0.01,0.05
33.467,-0.06,0.01,0.08,0.10
33.477,-0.07,0.03,0.20,0.21
33.487,-0.10,0.05,0.10,0.15
33.497,-0.07,0.06,0.03,0.10
33.507,-0.04,0.06,0.09,0.12
33.517,-0.03,0.05,0.08,0.10
33.527,-0.02,0.01,0.08,0.08
33.537,-0.02,-0.01,0.09,0.09
33.547,-0.03,0.01,0.08,0.09
33.557,-0.01,0.02,0.04,0.05
33.567,-0.01,0.01,0.07,0.08
33.577,-0.03,0.02,0.08,0.09
33.587,-0.05,0.00,0.06,0.08
33.597,-0.04,0.00,0.05,0.07
33.607,-0.05,0.01,0.10,0.11
33.617,-0.03,0.06,0.11,0.13
33.627,-0.01,0.06,0.06,0.08
33.637,0.02,0.05,0.03,0.06
33.647,0.01,0.04,0.05,0.07
33.657,-0.03,0.03,0.08,0.09
33.667,-0.04,0.01,0.09,0.10
33.677,-0.07,-0.01,0.03,0.08
33.687,-0.08,-0.06,0.05,0.11
33.697,-0.10,-0.06,0.08,0.14
33.707,-0.10,-0.04,0.06,0.12
33.717,-0.07,-0.03,0.04,0.09
33.727,-0.03,-0.04,0.03,0.06
33.737,-0.03,-0.02,0.02,0.04
33.747,-0.02,-0.03,0.07,0.08
33.757,-0.04,-0.01,0.14,0.15
33.767,-0.03,0.00,0.11,0.12
33.777,-0.01,-0.00,0.06,0.06
33.786,-0.00,-0.00,-0.01,0.01
33.796,-0.01,0.01,0.04,0.04
33.807,-0.02,0.01,0.12,0.12
33.816,-0.03,0.05,0.11,0.12
33.827,-0.02,0.05,0.06,0.08
33.836,-0.04,0.06,0.08,0.10
33.847,-0.07,0.08,0.08,0.13
33.856,-0.06,0.10,0.04,0.12
33.866,0.00,0.11,0.06,0.12
33.876,0.03,0.13,0.10,0.17
33.886,0.03,0.10,0.09,0.14
33.896,0.01,0.10,0.06,0.12
33.906,-0.03,0.06,0.12,0.14
33.916,-0.12,0.05,0.14,0.19
33.926,-0.13,0.03,0.13,0.19
33.936,-0.13,0.00,0.10,0.17
33.946,-0.11,0.00,0.08,0.14
33.956,-0.06,0.04,0.06,0.10
33.966,-0.03,0.03,0.06,0.07
33.976,0.00,0.05,0.04,0.06
33.986,0.04,0.05,0.04,0.08
33.996,0.04,0.03,-0.04,0.07
34.006,0.00,-0.02,-0.12,0.12
34.016,-0.03,-0.05,-0.05,0.08
34.026,-0.10,-0.05,-0.02,0.11
34.036,-0.11,-0.04,0.02,0.12
34.046,-0.09,0.02,0.07,0.11
34.056,-0.09,0.08,0.12,0.17
34.066,-0.08,0.11,0.14,0.20
34.076,-0.07,0.14,0.10,0.18
34.086,-0.05,0.14,0.09,0.17
34.096,-0.05,0.14,0.13,0.20
34.106,-0.04,0.14,0.12,0.18
34.116,-0.03,0.11,0.07,0.13
34.126,-0.02,0.11,0.03,0.11
34.136,-0.01,0.09,0.04,0.10
34.146,-0.00,0.08,0.02,0.09
34.156,-0.03,0.07,0.02,0.08
34.166,-0.04,0.06,0.03,0.08
34.176,-0.06,0.08,0.08,0.13
34.186,-0.09,0.09,0.09,0.16
34.196,-0.09,0.08,0.06,0.13
34.206,-0.07,0.09,0.03,0.12
34.216,-0.07,0.10,0.08,0.14
34.226,-0.02,0.10,0.10,0.14
34.236,0.00,0.09,0.05,0.10
34.246,-0.00,0.05,0.06,0.08
34.255,-0.01,0.04,0.11,0.12
34.266,-0.04,0.04,0.13,0.14
34.276,-0.05,0.02,0.11,0.12
34.285,-0.04,0.00,0.09,0.10
34.295,-0.04,-0.01,0.08,0.09
34.305,-0.01,0.01,0.09,0.09
34.315,-0.02,-0.00,0.06,0.06
34.325,-0.02,-0.01,0.06,0.06
34.335,-0.00,-0.02,0.11,0.11
34.345,-0.01,-0.02,0.13,0.13
34.355,-0.04,-0.02,0.09,0.10
34.365,-0.04,-0.04,-0.00,0.06
34.375,-0.06,-0.06,-0.03,0.09
34.385,-0.07,-0.06,-0.03,0.10
34.395,-0.06,-0.07,0.01,0.10
34.405,-0.06,-0.06,0.02,0.09
34.415,-0.05,-0.05,0.01,0.07
34.425,-0.06,-0.05,0.03,0.08
34.435,-0.06,-0.02,0.09,0.11
34.445,-0.06,-0.00,0.15,0.16
34.455,-0.07,0.01,0.17,0.18
34.465,-0.05,0.03,0.14,0.15
34.475,-0.04,0.03,0.09,0.10
34.485,-0.04,0.03,0.07,0.09
34.495,-0.05,0.02,0.11,0.12
34.505,-0.05,0.02,0.15,0.16
34.515,-0.02,-0.00,0.09,0.10
34.525,0.00,-0.04,0.06,0.08
34.535,-0.02,-0.04,0.08,0.09
34.545,-0.00,-0.05,0.08,0.10
34.555,-0.01,-0.07,-0.03,0.08
34.565,-0.03,-0.09,-0.06,0.11
34.575,0.02,-0.06,-0.01,0.06
34.585,0.03,-0.02,-0.00,0.04
34.595,0.05,-0.01,-0.02,0.05
34.605,0.04,-0.02,0.02,0.05
34.615,-0.00,0.02,0.06,0.07
34.625,-0.02,0.05,0.13,0.14
34.635,-0.01,0.05,0.15,0.16
34.645,0.02,0.04,0.16,0.17
34.655,0.07,0.02,0.18,0.20
34.665,0.18,0.03,0.11,0.21
34.675,0.14,0.04,-0.05,0.15
34.685,-0.08,0.02,-0.06,0.10
34.695,-0.23,-0.04,-0.03,0.23
34.705,-0.29,-0.07,-0.04,0.30
34.715,-0.31,-0.10,-0.00,0.33
34.724,-0.31,-0.10,0.05,0.33
34.735,-0.23,-0.07,0.13,0.27
34.744,-0.14,0.01,0.10,0.17
34.754,-0.03,0.05,0.15,0.16
34.764,0.10,0.07,0.16,0.20
34.774,0.18,0.07,0.04,0.20
34.785,0.21,0.04,0.10,0.23
34.794,0.13,0.02,0.14,0.20
34.804,0.03,0.02,0.07,0.08
34.814,-0.05,0.03,0.07,0.09
34.824,-0.14,0.06,0.11,0.19
34.834,-0.21,0.07,0.14,0.26
34.844,-0.26,0.06,0.14,0.30
34.854,-0.18,0.13,0.15,0.27
34.864,-0.14,0.15,0.13,0.25
34.874,-0.07,0.13,0.08,0.17
34.884,-0.03,0.13,0.06,0.15
34.894,-0.03,0.15,0.02,0.16
34.904,0.00,0.14,-0.01,0.14
34.914,-0.00,0.13,-0.00,0.13
34.924,-0.02,0.10,0.02,0.10
34.934,-0.03,0.07,0.05,0.09
34.944,-0.06,0.07,0.02,0.09
34.954,-0.11,0.05,-0.00,0.12
34.964,-0.06,0.03,0.08,0.10
34.974,-0.08,0.06,0.07,0.12
34.984,-0.03,0.04,0.10,0.11
34.994,-0.00,0.07,0.12,0.14
35.004,0.03,0.09,0.10,0.14
35.014,0.08,0.06,0.05,0.12
35.024,0.05,0.05,0.05,0.09
35.034,-0.00,0.04,0.06,0.07
35.044,-0.03,0.00,0.09,0.10
35.054,-0.05,-0.03,0.05,0.08
35.064,-0.11,-0.04,0.08,0.14
35.074,-0.09,-0.02,0.07,0.12
35.084,-0.05,-0.03,0.08,0.10
35.094,-0.05,-0.02,0.06,0.08
35.104,-0.03,-0.00,0.06,0.06
35.114,-0.01,0.02,0.07,0.07
35.124,-0.00,0.03,0.05,0.06
35.134,-0.00,0.02,0.07,0.07
35.144,-0.02,0.04,0.10,0.10
35.154,-0.03,0.05,0.09,0.11
35.163,-0.05,0.02,0.01,0.05
35.174,-0.06,-0.00,0.02,0.06
35.183,-0.08,-0.01,0.07,0.10
35.193,-0.09,-0.01,0.07,0.11
35.203,-0.10,-0.01,0.07,0.12
35.213,-0.10,-0.01,0.06,0.11
35.223,-0.07,0.01,0.05,0.08
35.233,-0.03,0.01,0.03,0.05
35.243,0.00,-0.03,0.03,0.04
35.254,0.00,-0.03,-0.00,0.03
35.263,-0.03,-0.03,0.05,0.06
35.273,-0.04,-0.01,0.15,0.15
35.283,-0.06,0.01,0.07,0.09
35.293,-0.05,-0.00,0.01,0.05
35.303,-0.04,-0.02,0.04,0.07
35.313,-0.04,0.00,0.21,0.22
35.323,-0.05,0.05,0.24,0.25
35.333,-0.01,0.03,0.06,0.07
35.343,-0.02,-0.02,-0.00,0.03
35.353,-0.06,-0.01,0.03,0.07
35.363,-0.11,-0.03,0.10,0.15
35.373,-0.14,-0.02,0.17,0.23
35.383,-0.13,0.01,0.09,0.15
35.393,-0.11,-0.01,0.00,0.11
35.403,-0.11,-0.02,0.06,0.13
35.413,-0.12,-0.00,0.13,0.18
35.423,-0.09,0.00,0.07,0.11
35.433,-0.02,0.01,-0.05,0.05
35.443,-0.02,-0.02,0.00,0.03
35.453,-0.03,-0.00,0.14,0.14
35.463,-0.03,0.02,0.10,0.11
35.473,-0.02,-0.02,-0.02,0.04
35.483,-0.04,-0.05,-0.02,0.07
35.493,-0.06,-0.05,0.08,0.11
35.503,-0.07,-0.02,0.12,0.14
35.513,-0.05,0.01,0.07,0.08
35.523,-0.04,0.01,0.07,0.08
35.533,-0.03,0.04,0.11,0.12
35.543,-0.01,0.09,0.09,0.13
35.553,-0.02,0.08,0.02,0.08
35.563,-0.02,0.04,0.06,0.07
35.573,-0.04,0.04,0.11,0.13
35.583,-0.03,0.03,0.08,0.09
35.593,-0.03,0.01,0.00,0.03
35.603,-0.05,-0.01,0.04,0.07
35.613,-0.10,0.02,0.06,0.12
35.623,-0.08,0.01,0.04,0.10
35.633,-0.05,-0.00,0.07,0.09
35.643,-0.06,0.02,0.05,0.08
35.652,-0.04,0.05,0.06,0.08
35.663,-0.03,0.03,0.15,0.15
35.672,-0.03,0.05,0.12,0.13
35.682,0.02,0.04,0.08,0.09
35.692,0.02,0.02,0.01,0.03
35.702,-0.01,0.03,0.07,0.08
35.712,-0.01,0.01,0.11,0.11
35.722,-0.01,-0.00,0.05,0.05
35.732,-0.03,-0.03,0.00,0.05
35.742,-0.04,-0.01,0.06,0.08
35.752,-0.04,-0.01,0.14,0.14
35.762,-0.03,0.01,0.06,0.07
35.772,-0.02,-0.00,0.00,0.02
35.782,-0.04,0.00,0.03,0.05
35.792,-0.10,-0.01,0.14,0.17
35.802,-0.07,0.01,0.12,0.14
35.812,-0.03,0.02,0.04,0.06
35.822,-0.04,0.02,0.03,0.05
35.832,-0.04,0.02,0.08,0.09
35.842,-0.05,0.03,0.05,0.08
35.852,-0.04,0.01,0.03,0.05
35.862,-0.04,0.00,0.04,0.06
35.872,-0.07,0.00,0.12,0.14
35.882,-0.08,0.02,0.09,0.12
35.892,-0.04,0.01,0.04,0.06
35.902,-0.03,0.03,0.04,0.05
35.912,-0.03,0.04,0.10,0.11
35.922,-0.03,0.04,0.10,0.11
35.932,-0.01,0.04,0.03,0.05
35.942,-0.02,0.01,0.01,0.02
35.952,-0.04,0.00,0.10,0.10
35.962,-0.07,-0.00,0.12,0.14
35.972,-0.08,-0.01,0.03,0.08
35.982,-0.04,0.01,0.05,0.07
35.992,-0.04,0.02,0.09,0.10
36.002,-0.06,0.01,0.08,0.10
36.012,-0.06,-0.00,0.12,0.13
36.022,-0.07,0.03,0.09,0.11
36.032,-0.05,0.07,0.08,0.11
36.042,-0.03,0.08,0.07,0.11
36.052,0.01,0.08,0.01,0.08
36.062,0.05,0.07,-0.00,0.08
36.072,0.05,0.05,0.03,0.08
36.082,-0.01,0.03,0.09,0.10
36.092,-0.08,-0.02,0.11,0.13
36.101,-0.11,-0.05,0.09,0.15
36.112,-0.15,-0.06,0.14,0.21
36.122,-0.17,-0.05,0.16,0.24
36.132,-0.14,-0.03,0.06,0.16
36.141,-0.07,-0.01,0.05,0.08
36.151,-0.04,0.01,0.06,0.07
36.161,-0.01,0.03,0.06,0.07
36.171,0.02,0.02,0.06,0.06
36.181,0.00,0.00,0.05,0.05
36.191,-0.01,-0.01,0.07,0.07
36.201,-0.03,-0.00,0.03,0.05
36.211,-0.05,-0.01,0.06,0.08
36.221,-0.07,-0.02,0.05,0.09
36.231,-0.08,-0.02,0.07,0.11
36.241,-0.07,0.01,0.10,0.12
36.251,-0.05,0.01,0.09,0.10
36.261,-0.03,0.04,0.10,0.12
36.271,-0.03,0.06,0.11,0.13
36.281,-0.01,0.09,0.12,0.15
36.291,-0.01,0.12,0.15,0.19
36.301,-0.03,0.13,0.11,0.17
36.311,-0.01,0.12,0.09,0.15
36.321,0.01,0.12,0.07,0.14
36.331,-0.02,0.13,0.10,0.17
36.341,-0.06,0.12,0.13,0.19
36.351,-0.10,0.06,0.10,0.16
36.361,-0.15,0.00,0.05,0.16
36.371,-0.17,-0.08,0.03,0.19
36.381,-0.17,-0.15,0.01,0.23
36.391,-0.13,-0.16,-0.05,0.21
36.401,-0.08,-0.20,-0.13,0.26
36.411,-0.06,-0.21,-0.11,0.25
36.421,-0.02,-0.17,-0.09,0.19
36.431,0.01,-0.14,-0.03,0.14
36.441,0.00,-0.11,0.04,0.12
36.451,-0.01,-0.09,0.05,0.10
36.461,0.01,-0.08,0.03,0.09
36.471,0.02,-0.09,0.07,0.12
36.481,-0.01,-0.11,0.08,0.13
36.491,-0.03,-0.11,0.09,0.14
36.501,-0.02,-0.09,0.07,0.12
36.511,-0.02,-0.06,0.05,0.08
36.521,-0.02,-0.03,0.05,0.06
36.531,-0.01,0.02,0.07,0.07
36.541,-0.03,0.07,0.10,0.12
36.551,-0.03,0.11,0.10,0.15
36.561,-0.03,0.13,0.12,0.18
36.571,-0.02,0.14,0.13,0.20
36.581,-0.03,0.17,0.18,0.25
36.590,-0.06,0.20,0.12,0.24
36.601,-0.05,0.16,0.16,0.23
36.610,-0.04,0.12,0.07,0.14
36.620,-0.04,0.10,0.02,0.11
36.630,-0.02,0.07,0.03,0.07
36.640,-0.01,0.04,0.05,0.07
36.650,-0.00,0.02,0.03,0.04
36.660,0.00,0.00,0.06,0.06
36.670,0.00,-0.01,0.05,0.05
36.680,0.01,-0.03,0.00,0.03
36.690,0.00,-0.04,0.00,0.04
36.700,-0.03,-0.03,0.02,0.04
36.710,-0.02,-0.02,0.03,0.04
36.720,-0.03,0.02,0.05,0.06
36.730,-0.03,0.06,0.08,0.10
36.740,-0.03,0.13,0.06,0.14
36.750,0.02,0.15,0.11,0.19
36.760,-0.01,0.15,0.13,0.20
36.770,-0.02,0.16,0.17,0.24
36.780,-0.02,0.20,0.22,0.30
36.790,-0.06,0.21,0.18,0.28
36.800,-0.06,0.19,0.16,0.26
36.810,-0.03,0.18,0.08,0.20
36.820,-0.02,0.14,0.03,0.14
36.830,-0.02,0.06,0.03,0.07
36.840,-0.03,0.00,0.03,0.05
36.850,-0.09,-0.05,0.01,0.10
36.860,-0.13,-0.06,0.01,0.15
36.870,-0.16,-0.07,0.05,0.18
36.880,-0.15,-0.07,0.08,0.19
36.890,-0.11,-0.04,0.09,0.15
36.900,-0.06,-0.01,0.07,0.09
36.910,-0.02,0.03,0.02,0.04
36.920,-0.00,0.04,0.01,0.04
36.930,0.02,0.03,-0.01,0.04
36.940,0.02,0.02,0.02,0.03
36.950,-0.01,-0.00,0.09,0.09
36.960,-0.05,-0.01,0.19,0.20
36.970,-0.06,0.01,0.25,0.26
36.980,-0.08,0.04,0.20,0.22
36.990,-0.07,0.06,0.19,0.21
37.000,-0.07,0.09,0.22,0.25
37.010,-0.09,0.12,0.25,0.29
37.020,-0.13,0.12,0.25,0.31
37.030,-0.15,0.12,0.20,0.28
37.039,-0.14,0.11,0.09,0.20
37.049,-0.11,0.05,0.09,0.16
37.059,-0.09,0.05,-0.02,0.10
37.069,-0.13,0.08,-0.06,0.16
37.079,-0.03,-0.01,0.00,0.03
37.089,-0.08,0.00,-0.01,0.08
37.099,-0.03,-0.02,0.01,0.04
37.109,0.00,0.00,-0.02,0.02
37.119,-0.04,-0.00,-0.04,0.06
37.129,-0.05,-0.03,-0.05,0.08
37.139,-0.05,-0.09,-0.10,0.14
37.149,-0.08,-0.15,-0.07,0.18
37.159,-0.08,-0.18,0.00,0.20
37.169,-0.09,-0.21,-0.02,0.23
37.179,-0.09,-0.23,-0.03,0.25
37.189,-0.06,-0.24,-0.01,0.25
37.199,-0.08,-0.20,-0.05,0.22
37.209,-0.05,-0.15,0.01,0.15
37.219,-0.04,-0.12,0.07,0.14
37.229,-0.08,-0.09,0.02,0.12
37.239,-0.07,-0.09,-0.02,0.11
37.249,-0.07,-0.08,0.05,0.12
37.259,-0.02,-0.02,0.10,0.10
37.269,0.01,-0.06,0.01,0.06
37.279,-0.05,-0.11,0.01,0.12
37.289,-0.07,-0.11,0.04,0.13
37.299,-0.11,-0.13,0.08,0.19
37.309,-0.12,-0.10,0.14,0.21
37.319,-0.12,-0.05,0.14,0.19
37.329,-0.08,0.01,0.12,0.15
37.339,-0.01,0.10,0.16,0.19
37.349,0.02,0.17,0.18,0.25
37.359,0.05,0.18,0.12,0.22
37.369,0.04,0.15,0.07,0.16
37.379,0.04,0.11,0.05,0.13
37.389,0.04,0.08,0.02,0.09
37.399,0.00,-0.01,-0.04,0.04
37.409,-0.05,-0.07,-0.05,0.10
37.419,-0.06,-0.11,-0.05,0.14
37.428,-0.05,-0.14,-0.05,0.16
37.439,-0.03,-0.14,-0.06,0.16
37.449,-0.01,-0.12,0.01,0.12
37.459,-0.02,-0.09,0.09,0.13
37.469,0.02,-0.06,0.13,0.15
37.478,0.06,0.00,0.16,0.17
37.489,0.09,0.06,0.14,0.17
37.499,0.01,0.05,0.12,0.13
37.509,-0.05,-0.00,0.11,0.12
37.518,-0.07,-0.00,0.14,0.16
37.528,-0.10,0.05,0.11,0.16
37.538,-0.06,0.04,0.08,0.11
37.549,-0.03,0.05,0.10,0.11
37.558,-0.01,0.10,0.11,0.15
37.568,0.02,0.11,0.12,0.17
37.578,0.02,0.09,0.09,0.12
37.588,-0.03,0.07,0.05,0.09
37.598,-0.07,0.07,0.05,0.11
37.608,-0.11,0.07,0.07,0.14
37.618,-0.14,0.06,0.04,0.15
37.628,-0.17,0.05,0.10,0.20
37.638,-0.15,0.07,0.10,0.19
37.648,-0.07,0.08,0.03,0.11
37.658,0.02,0.06,-0.01,0.07
37.668,0.05,0.06,-0.03,0.08
37.678,0.08,0.02,-0.03,0.09
37.688,0.07,0.00,-0.02,0.08
37.698,0.05,-0.01,-0.00,0.05
37.708,0.03,-0.00,0.04,0.04
37.718,0.01,0.03,0.03,0.04
37.728,-0.01,0.05,0.04,0.06
37.738,-0.04,0.03,0.13,0.14
37.748,-0.03,0.08,0.15,0.17
37.758,-0.07,0.14,0.07,0.17
37.768,-0.02,0.09,0.09,0.13
37.778,-0.07,0.12,0.04,0.15
37.788,-0.05,0.13,0.05,0.15
37.798,-0.02,0.13,0.11,0.17
37.808,0.01,0.06,0.19,0.20
37.818,-0.05,0.09,0.13,0.17
37.828,-0.07,0.06,0.15,0.17
37.838,-0.07,0.03,0.11,0.13
37.848,-0.10,0.01,0.09,0.13
37.858,-0.12,-0.02,0.06,0.14
37.868,-0.16,-0.06,0.01,0.17
37.878,-0.15,-0.07,0.02,0.16
37.888,-0.12,-0.06,-0.03,0.13
37.898,-0.06,-0.07,-0.05,0.11
37.908,-0.02,-0.08,-0.03,0.09
37.918,-0.01,-0.06,-0.01,0.07
37.928,0.01,-0.05,0.02,0.06
37.937,0.02,-0.04,0.05,0.07
37.948,0.02,-0.02,0.13,0.13
37.958,0.01,-0.01,0.08,0.08
37.968,0.02,-0.02,0.05,0.06
37.977,0.01,-0.02,0.05,0.06
37.988,0.03,-0.00,0.02,0.03
37.997,0.05,-0.00,0.04,0.07
38.007,0.07,0.02,0.05,0.09
38.017,0.06,0.05,0.03,0.08
38.028,0.07,0.07,0.10,0.14
38.037,0.05,0.08,0.06,0.11
38.047,0.10,0.06,0.03,0.12
38.057,0.19,0.03,0.02,0.20
38.067,0.21,-0.02,0.02,0.21
38.077,0.20,-0.10,-0.03,0.23
38.087,0.27,-0.12,-0.06,0.30
38.097,0.40,-0.07,0.01,0.41
38.107,0.38,-0.00,0.05,0.39
38.117,0.09,-0.00,0.11,0.15
38.127,-0.23,-0.03,0.26,0.35
38.137,-0.45,-0.05,0.19,0.49
38.147,-0.49,-0.07,0.08,0.50
38.157,-0.46,-0.01,0.06,0.46
38.167,-0.39,0.08,0.10,0.41
38.177,-0.28,0.12,0.15,0.34
38.187,-0.19,0.15,0.09,0.26
38.197,-0.18,0.14,0.03,0.23
38.207,-0.20,0.07,0.01,0.21
38.217,-0.19,0.02,0.00,0.20
38.227,-0.18,-0.00,-0.03,0.18
38.237,-0.15,-0.02,0.03,0.16
38.247,-0.12,0.00,0.10,0.16
38.257,-0.07,0.04,0.08,0.11
38.267,-0.02,0.05,0.12,0.13
38.277,0.01,0.04,0.21,0.21
38.287,0.06,0.00,0.15,0.16
38.297,0.13,-0.02,0.13,0.19
38.307,0.16,-0.03,0.12,0.20
38.317,0.14,-0.02,0.10,0.18
38.327,0.13,-0.05,0.07,0.16
38.337,0.08,-0.03,0.05,0.10
38.347,0.01,-0.06,0.08,0.10
38.357,0.00,-0.05,0.06,0.08
38.367,-0.05,-0.02,0.05,0.07
38.377,-0.11,0.02,0.15,0.19
38.387,-0.14,0.02,0.13,0.19
38.397,-0.10,0.02,-0.06,0.11
38.407,-0.09,0.02,-0.12,0.16
38.417,-0.14,0.07,-0.01,0.16
38.426,-0.18,0.07,0.13,0.23
38.437,-0.19,0.05,0.07,0.21
38.447,-0.11,0.04,-0.10,0.15
38.456,-0.05,0.05,-0.10,0.12
38.466,-0.07,0.08,0.10,0.15
38.476,-0.08,0.08,0.26,0.29
38.486,-0.09,0.09,0.12,0.18
38.496,-0.05,0.08,-0.05,0.11
38.506,-0.05,0.09,-0.05,0.12
38.516,-0.09,0.09,0.07,0.14
38.526,-0.11,0.06,0.31,0.33
38.536,-0.11,0.04,0.29,0.31
38.546,-0.09,-0.05,-0.04,0.11
38.556,-0.01,-0.08,-0.14,0.16
38.566,-0.01,-0.06,-0.09,0.10
38.576,-0.01,-0.03,0.00,0.03
38.586,-0.01,0.03,0.18,0.18
38.596,-0.03,0.08,0.13,0.15
38.606,-0.06,0.06,-0.05,0.10
38.616,-0.06,0.05,-0.03,0.08
38.626,-0.11,0.09,0.06,0.16
38.636,-0.14,0.12,0.18,0.25
38.646,-0.12,0.14,0.13,0.23
38.656,-0.07,0.14,0.04,0.16
38.666,-0.04,0.14,0.12,0.19
38.676,-0.06,0.14,0.15,0.21
38.686,-0.01,0.12,0.02,0.12
38.696,0.04,0.10,-0.01,0.11
38.706,0.01,0.10,0.08,0.13
38.716,-0.02,0.08,0.11,0.14
38.726,-0.04,0.05,0.06,0.09
38.736,-0.03,0.02,0.04,0.05
38.746,-0.06,0.02,0.11,0.12
38.756,-0.02,0.06,0.12,0.14
38.766,0.01,0.08,-0.01,0.08
38.776,0.00,0.05,-0.02,0.05
38.786,-0.02,0.04,0.06,0.07
38.796,-0.03,0.04,0.11,0.12
38.806,-0.04,0.04,0.08,0.10
38.816,-0.05,0.04,0.04,0.07
38.826,-0.07,0.03,0.06,0.10
38.836,-0.11,0.02,0.08,0.14
38.846,-0.08,0.05,0.08,0.12
38.856,-0.01,0.06,0.08,0.10
38.866,0.02,0.06,0.11,0.12
38.876,0.03,0.06,0.12,0.13
38.886,0.02,0.04,0.05,0.07
38.896,-0.01,0.03,0.02,0.04
38.906,-0.05,0.01,0.13,0.14
38.916,-0.11,-0.00,0.11,0.16
38.925,-0.08,-0.04,0.01,0.09
38.935,-0.04,-0.06,0.02,0.07
38.946,-0.07,-0.04,0.14,0.16
38.955,-0.07,-0.04,0.11,0.13
38.965,-0.01,-0.06,0.01,0.07
38.975,0.03,-0.04,-0.04,0.07
38.985,0.01,-0.03,0.10,0.11
38.995,-0.00,-0.04,0.33,0.33
39.005,-0.02,-0.03,0.17,0.18
39.015,-0.04,-0.09,-0.05,0.11
39.025,-0.06,-0.12,-0.06,0.15
39.035,-0.11,-0.08,0.03,0.14
39.045,-0.15,-0.10,0.13,0.22
39.055,-0.17,-0.14,0.18,0.28
39.065,-0.12,-0.11,0.06,0.18
39.075,-0.04,-0.06,-0.06,0.09
39.085,0.01,-0.01,-0.07,0.07
39.095,0.03,0.02,0.02,0.04
39.105,0.00,-0.00,0.13,0.13
39.115,-0.06,-0.03,0.18,0.20
39.125,-0.13,-0.08,0.08,0.17
39.135,-0.13,-0.09,-0.03,0.16
39.145,-0.09,-0.05,-0.03,0.11
39.155,-0.06,-0.02,0.00,0.06
39.165,-0.04,-0.04,0.06,0.08
39.175,-0.05,-0.03,0.21,0.21
39.185,-0.07,-0.01,0.22,0.23
39.195,-0.02,-0.00,0.02,0.03
39.205,0.00,-0.00,-0.08,0.08
39.215,-0.04,0.00,-0.05,0.06
39.225,-0.08,0.01,0.06,0.10
39.235,-0.10,-0.02,0.27,0.29
39.245,-0.14,-0.03,0.31,0.34
39.255,-0.13,-0.04,0.10,0.17
39.265,-0.10,-0.08,-0.02,0.13
39.275,-0.12,-0.03,0.03,0.12
39.285,-0.13,0.01,0.13,0.19
39.295,-0.11,0.02,0.09,0.14
39.305,-0.05,0.00,-0.05,0.07
39.315,-0.01,0.04,-0.08,0.09
39.325,-0.02,0.06,-0.01,0.07
39.335,-0.04,0.07,0.06,0.10
39.345,-0.09,0.09,0.02,0.13
39.355,-0.09,0.04,-0.06,0.12
39.365,-0.08,-0.01,-0.06,0.10
39.375,-0.06,-0.02,-0.08,0.10
39.384,-0.13,-0.04,-0.12,0.18
39.394,-0.21,-0.08,-0.05,0.23
39.405,-0.23,-0.07,0.12,0.27
39.414,-0.13,0.01,0.26,0.29
39.424,0.00,0.09,0.29,0.31
39.434,0.10,0.15,0.19,0.27
39.444,0.15,0.14,0.11,0.23
39.455,0.15,0.09,0.10,0.20
39.464,0.11,0.06,0.07,0.14
39.474,0.04,0.01,0.06,0.07
39.484,-0.02,-0.04,0.09,0.10
39.494,-0.05,-0.06,0.05,0.09
39.504,-0.08,-0.08,-0.01,0.11
39.514,-0.09,-0.08,-0.06,0.14
39.524,-0.11,-0.11,-0.04,0.16
39.534,-0.09,-0.08,0.00,0.12
39.544,-0.07,-0.05,-0.03,0.09
39.554,-0.04,-0.04,-0.01,0.06
39.564,-0.05,-0.00,0.04,0.06
39.574,-0.05,0.03,-0.01,0.06
39.584,-0.05,0.01,0.00,0.05
39.594,-0.03,0.04,0.04,0.06
39.604,-0.01,0.08,0.12,0.14
39.614,0.01,0.08,0.23,0.24
39.624,-0.02,0.07,0.10,0.13
39.634,0.06,0.07,-0.07,0.12
39.644,0.10,0.08,0.01,0.13
39.654,0.09,0.11,0.11,0.18
39.664,0.13,0.06,0.05,0.15
39.674,0.12,0.01,0.03,0.12
39.684,0.05,0.04,0.12,0.14
39.694,-0.00,0.02,0.12,0.12
39.704,-0.02,-0.00,0.09,0.09
39.714,-0.08,-0.01,0.07,0.11
39.724,-0.07,0.03,0.04,0.09
39.734,-0.07,0.02,0.01,0.07
39.744,-0.05,0.02,0.11,0.12
39.754,-0.06,0.02,0.16,0.18
39.764,-0.03,0.03,0.10,0.11
39.774,0.05,0.03,0.06,0.08
39.784,0.09,0.05,-0.00,0.10
39.794,0.05,0.04,0.05,0.08
39.804,-0.00,0.02,0.14,0.14
39.814,-0.04,0.03,0.11,0.12
39.824,-0.06,0.03,0.11,0.13
39.833,-0.06,0.03,0.14,0.16
39.843,-0.02,0.04,0.10,0.11
39.854,0.00,0.05,0.04,0.06
39.863,-0.01,0.05,0.12,0.13
39.873,-0.03,0.03,0.18,0.19
39.883,-0.01,0.02,0.06,0.06
39.893,0.03,0.00,-0.02,0.03
39.903,0.06,0.01,0.04,0.07
39.913,0.06,0.02,0.09,0.11
39.923,0.07,0.01,0.02,0.07
39.933,0.02,-0.04,0.01,0.04
39.943,-0.03,-0.02,0.08,0.09
39.953,-0.10,0.01,0.12,0.16
39.963,-0.08,0.02,0.12,0.15
39.973,-0.05,0.04,0.08,0.11
39.983,-0.01,0.08,0.10,0.13
39.993,0.02,0.12,0.11,0.16
40.003,0.03,0.12,0.07,0.14
40.013,0.02,0.11,0.09,0.14
40.023,-0.01,0.12,0.13,0.18
40.033,-0.09,0.10,0.12,0.18
40.043,-0.13,0.05,0.07,0.16
40.053,-0.15,0.04,0.10,0.18
40.063,-0.13,0.04,0.07,0.15
40.073,-0.09,0.05,0.08,0.13
40.083,-0.03,0.04,0.04,0.06
40.093,-0.00,0.02,-0.02,0.03
40.103,-0.01,-0.01,-0.01,0.01
40.113,-0.05,-0.02,-0.01,0.05
40.123,-0.09,-0.03,0.03,0.10
40.133,-0.10,-0.03,0.05,0.12
40.143,-0.16,-0.03,0.05,0.17
40.153,-0.13,-0.00,0.07,0.15
40.163,-0.12,-0.01,0.12,0.17
40.173,-0.08,0.05,0.14,0.17
40.183,-0.01,0.07,0.09,0.11
40.193,-0.03,0.04,0.07,0.09
40.203,-0.05,0.01,0.06,0.08
40.213,-0.08,-0.00,0.08,0.11
40.223,-0.12,-0.02,0.14,0.18
40.233,-0.15,-0.01,0.07,0.17
40.243,-0.13,-0.00,-0.03,0.13
40.253,-0.09,-0.00,-0.02,0.10
40.263,-0.06,-0.02,-0.02,0.07
40.273,-0.01,-0.03,0.00,0.04
40.282,0.00,-0.05,0.00,0.05
40.293,-0.02,-0.05,0.01,0.06
40.303,-0.07,-0.03,-0.01,0.08
40.313,-0.09,0.01,-0.01,0.09
40.323,-0.08,0.05,0.03,0.10
40.332,-0.05,0.09,0.08,0.13
40.342,-0.00,0.11,0.13,0.17
40.352,-0.02,0.12,0.22,0.26
40.362,-0.06,0.11,0.26,0.29
40.372,-0.09,0.06,0.18,0.21
40.382,-0.12,0.02,0.11,0.17
40.392,-0.13,-0.01,0.12,0.18
40.402,-0.10,-0.04,0.17,0.20
40.412,-0.08,-0.08,0.05,0.13
40.422,-0.04,-0.10,-0.02,0.11
40.432,-0.01,-0.08,0.06,0.10
40.442,-0.01,-0.06,0.11,0.12
40.452,-0.00,-0.08,-0.00,0.08
40.462,-0.00,-0.09,-0.08,0.12
40.472,-0.06,-0.07,0.03,0.10
40.482,-0.11,-0.09,0.14,0.20
40.492,-0.14,-0.12,0.02,0.18
40.502,-0.13,-0.14,-0.09,0.21
40.512,-0.08,-0.12,-0.07,0.16
40.522,-0.06,-0.11,0.01,0.13
40.532,-0.03,-0.11,-0.05,0.12
40.542,-0.00,-0.11,-0.12,0.16
40.552,-0.03,-0.06,-0.09,0.11
40.562,-0.07,-0.00,0.02,0.07
40.572,-0.10,0.05,0.06,0.13
40.582,-0.08,0.08,0.05,0.13
40.592,-0.10,0.11,0.14,0.21
40.602,-0.12,0.16,0.23,0.31
40.612,-0.16,0.20,0.29,0.38
40.622,-0.15,0.21,0.31,0.40
40.632,-0.07,0.18,0.31,0.37
40.642,-0.05,0.13,0.30,0.33
40.652,0.00,0.16,0.29,0.33
40.662,-0.01,0.10,0.24,0.26
40.672,0.03,0.06,0.25,0.26
40.682,0.04,0.07,0.16,0.18
40.692,0.05,0.09,0.07,0.12
40.702,0.01,0.07,0.02,0.07
40.712,-0.04,-0.02,0.02,0.05
40.722,-0.12,-0.07,-0.11,0.18
40.732,-0.16,-0.08,-0.20,0.27
40.742,-0.14,-0.17,-0.20,0.30
40.752,-0.10,-0.18,-0.13,0.25
40.762,-0.10,-0.19,-0.19,0.29
40.771,-0.07,-0.18,-0.27,0.33
40.782,-0.03,-0.17,-0.19,0.26
40.792,-0.04,-0.09,-0.07,0.12
40.801,-0.01,-0.02,-0.00,0.02
40.811,-0.01,0.05,0.11,0.12
40.821,0.01,0.12,0.25,0.28
40.831,0.00,0.18,0.37,0.41
40.841,-0.05,0.17,0.34,0.38
40.851,-0.04,0.13,0.31,0.34
40.861,-0.05,0.10,0.27,0.29
40.871,-0.03,0.07,0.20,0.21
40.881,0.01,0.03,0.15,0.16
40.891,0.01,-0.01,0.13,0.13
40.901,0.02,-0.03,0.12,0.12
40.911,0.04,-0.07,0.04,0.09
40.921,0.05,-0.06,-0.02,0.08
40.931,0.05,-0.07,-0.05,0.10
40.941,0.02,-0.10,-0.11,0.15
40.951,-0.04,-0.11,-0.16,0.20
40.961,-0.10,-0.10,-0.09,0.17
40.971,-0.08,-0.05,-0.03,0.10
40.981,-0.04,-0.02,0.00,0.04
40.991,-0.01,0.01,-0.06,0.06
41.001,0.04,0.04,-0.04,0.06
41.011,0.10,0.05,-0.03,0.11
41.021,0.12,0.06,-0.07,0.15
41.031,0.09,0.02,0.01,0.09
41.041,0.00,0.05,0.14,0.15
41.051,-0.03,0.05,0.17,0.18
41.061,-0.03,0.08,0.17,0.19
41.071,-0.04,0.11,0.25,0.28
41.081,-0.06,0.14,0.27,0.31
41.091,-0.04,0.15,0.14,0.21
41.101,-0.05,0.11,0.12,0.17
41.111,-0.07,0.13,0.22,0.26
41.121,-0.09,0.11,0.20,0.24
41.131,-0.08,0.05,0.06,0.11
41.141,-0.07,-0.01,0.01,0.07
41.151,-0.07,0.02,0.12,0.14
41.161,-0.06,0.07,0.13,0.16
41.171,-0.02,0.07,-0.04,0.09
41.181,-0.02,0.06,-0.08,0.11
41.191,-0.11,0.11,-0.01,0.16
41.201,-0.11,0.08,0.17,0.21
41.211,-0.02,0.01,0.15,0.15
41.221,-0.07,0.02,0.08,0.11
41.230,-0.09,0.03,0.15,0.18
41.241,-0.11,0.06,0.07,0.14
41.250,-0.05,0.03,0.01,0.06
41.260,-0.08,-0.01,0.02,0.08
41.270,-0.13,-0.02,0.02,0.13
41.280,-0.14,-0.03,-0.04,0.14
41.290,-0.13,-0.02,-0.03,0.13
41.300,-0.13,0.02,0.01,0.13
41.310,-0.11,0.05,0.07,0.14
41.320,-0.12,0.08,0.07,0.16
41.330,-0.08,0.10,0.05,0.14
41.340,-0.05,0.12,0.08,0.15
41.350,-0.06,0.13,0.13,0.20
41.360,-0.08,0.14,0.16,0.23
41.370,-0.07,0.09,0.09,0.14
41.380,-0.06,0.03,0.05,0.09
41.390,-0.08,0.02,0.10,0.13
41.400,-0.01,0.01,0.07,0.07
41.410,0.04,-0.04,0.01,0.06
41.420,0.01,-0.05,-0.04,0.07
41.430,-0.01,-0.04,0.01,0.04
41.440,-0.05,-0.02,0.03,0.06
41.450,-0.09,-0.00,-0.00,0.09
41.460,-0.10,-0.01,-0.01,0.10
41.470,-0.13,0.02,0.01,0.13
41.480,-0.14,0.04,0.11,0.18
41.490,-0.12,0.05,0.15,0.20
41.500,-0.09,0.01,0.11,0.14
41.510,-0.09,-0.04,0.05,0.11
41.520,-0.04,-0.05,0.09,0.11
41.530,-0.01,-0.05,0.09,0.10
41.540,0.02,-0.02,0.05,0.06
41.550,0.01,-0.04,-0.03,0.06
41.560,-0.03,-0.11,-0.03,0.11
41.570,-0.05,-0.11,0.06,0.14
41.580,-0.08,-0.08,0.05,0.13
41.590,-0.05,-0.09,-0.08,0.13
41.600,-0.04,-0.05,-0.05,0.08
41.610,-0.01,0.04,0.08,0.09
41.620,-0.00,0.15,0.14,0.21
41.630,0.02,0.19,0.11,0.22
41.640,0.00,0.16,0.13,0.21
41.650,-0.05,0.16,0.19,0.25
41.660,-0.11,0.14,0.19,0.26
41.669,-0.12,0.13,0.17,0.24
41.680,-0.07,0.15,0.10,0.19
41.690,-0.04,0.16,0.15,0.22
41.700,-0.03,0.16,0.23,0.28
41.710,-0.05,0.11,0.13,0.18
41.720,-0.05,0.06,0.07,0.10
41.729,-0.12,0.05,0.16,0.20
41.739,-0.17,0.04,0.17,0.24
41.749,-0.18,-0.01,0.11,0.21
41.760,-0.19,-0.06,0.05,0.21
41.769,-0.19,-0.08,0.04,0.21
41.779,-0.15,-0.09,0.05,0.18
41.789,-0.09,-0.09,-0.00,0.13
41.799,-0.03,-0.10,-0.01,0.11
41.809,0.03,-0.08,0.03,0.09
41.819,0.12,-0.03,0.05,0.13
41.829,0.18,-0.04,-0.02,0.19
41.839,0.17,-0.06,-0.05,0.19
41.849,0.12,-0.08,-0.02,0.15
41.859,0.08,-0.06,0.04,0.10
41.869,0.03,-0.01,0.07,0.07
41.879,-0.01,0.01,0.11,0.11
41.889,-0.04,0.04,0.13,0.14
41.899,-0.06,0.07,0.13,0.16
41.909,-0.05,0.10,0.17,0.20
41.919,-0.05,0.12,0.15,0.20
41.929,-0.00,0.10,0.09,0.14
41.939,-0.01,0.06,0.03,0.07
41.949,-0.03,0.03,0.04,0.05
41.959,-0.04,-0.00,0.04,0.05
41.969,-0.03,-0.03,0.05,0.06
41.979,-0.05,-0.01,0.02,0.06
41.989,-0.10,-0.06,0.01,0.12
41.999,-0.11,-0.08,0.01,0.14
42.009,-0.07,-0.09,-0.02,0.11
42.019,-0.00,-0.07,0.02,0.07
42.029,0.03,-0.03,0.03,0.05
42.039,0.04,0.01,0.07,0.08
42.049,0.06,0.01,0.05,0.08
42.059,0.05,0.01,0.11,0.12
42.069,0.03,0.03,0.14,0.15
42.079,0.00,0.04,0.14,0.15
42.089,-0.03,0.04,0.11,0.12
42.099,-0.07,0.05,0.12,0.15
42.109,-0.08,0.06,0.15,0.18
42.119,-0.08,0.04,0.11,0.15
42.129,-0.10,0.02,0.07,0.12
42.139,-0.10,-0.00,0.05,0.11
42.149,-0.09,-0.02,0.03,0.10
42.159,-0.06,-0.04,-0.01,0.07
42.168,-0.03,-0.07,-0.03,0.09
42.179,-0.03,-0.08,-0.05,0.09
42.189,-0.06,-0.07,0.03,0.10
42.198,-0.08,-0.06,0.06,0.11
42.209,-0.07,-0.07,0.02,0.10
42.219,-0.06,-0.06,0.05,0.10
42.228,-0.08,-0.02,0.13,0.16
42.238,-0.07,0.00,0.08,0.10
42.248,0.01,-0.01,0.03,0.03
42.258,0.01,0.02,0.05,0.05
42.268,0.00,0.04,0.09,0.10
42.278,-0.05,0.03,0.12,0.13
42.288,-0.07,0.04,0.12,0.15
42.298,-0.08,0.07,0.06,0.12
42.308,-0.07,0.07,0.16,0.19
42.318,-0.10,0.08,0.12,0.17
42.328,-0.05,0.06,0.04,0.09
42.338,-0.06,0.08,0.06,0.12
42.348,-0.08,0.09,0.03,0.13
42.358,-0.09,0.05,0.07,0.13
42.368,-0.07,0.04,0.11,0.13
42.378,-0.11,0.03,0.09,0.14
42.388,-0.11,0.02,0.10,0.15
42.398,-0.14,0.03,0.09,0.17
42.408,-0.16,0.02,0.15,0.22
42.418,-0.18,-0.01,0.16,0.24
42.428,-0.18,-0.04,0.13,0.23
42.438,-0.11,-0.05,0.15,0.20
42.448,-0.03,-0.03,0.10,0.11
42.458,0.01,-0.02,0.04,0.05
42.468,0.03,-0.02,0.04,0.06
42.478,0.03,-0.03,0.01,0.04
42.488,-0.02,-0.07,-0.01,0.07
42.498,-0.04,-0.07,0.02,0.09
42.508,-0.05,-0.03,0.05,0.07
42.518,-0.04,-0.00,0.06,0.07
42.528,0.00,-0.01,0.14,0.14
42.538,-0.02,0.02,0.08,0.08
42.548,-0.03,0.04,0.03,0.06
42.558,-0.04,0.05,-0.05,0.08
42.568,-0.07,0.09,-0.03,0.12
42.578,-0.07,0.12,0.04,0.15
42.588,-0.06,0.11,0.03,0.13
42.598,-0.06,0.10,0.00,0.12
42.608,-0.09,0.08,0.05,0.13
42.618,-0.10,0.08,0.06,0.13
42.627,-0.05,0.08,0.04,0.10
42.638,0.02,0.11,0.05,0.12
42.648,-0.00,0.12,0.08,0.15
42.658,0.01,0.09,0.08,0.12
42.668,0.06,0.04,0.07,0.10
42.678,0.06,0.01,0.05,0.08
42.687,0.02,-0.03,0.08,0.08
42.697,-0.02,-0.04,0.11,0.11
42.707,-0.07,-0.03,0.09,0.12
42.717,-0.07,-0.03,0.07,0.10
42.727,-0.06,-0.02,0.03,0.07
42.737,-0.07,-0.02,0.02,0.07
42.747,-0.13,-0.04,0.08,0.16
42.757,-0.17,-0.04,0.12,0.22
42.767,-0.13,-0.02,0.10,0.17
